,mean_reaction_time,first_trial_reaction_time,mean_accuracy,sum_skipped_trials,task_level1_x_avg_accuracy,first_trial_accuracy,client_platform,task_type1_x_avg_accuracy,clinician_ref,task_type37_x_avg_accuracy,task_type24_x_avg_accuracy,task_level2_x_avg_accuracy,task_type22_x_avg_accuracy,task_type25_x_avg_accuracy,is_highest_difficulty,task_type1,task_type37,task_level6_x_avg_accuracy,task_level1,task_type44_x_avg_accuracy,anon_id,greater1sess
0,12.750912,4.36889,1.0,0,1.0,1.0,0,0.0,0.0,0.0,0.0,0.0,0.0,0.0,0,0,0,0.0,1,0.0,1,1.0
1,4.0899519999999985,3.6725,0.9,0,0.9,1.0,0,0.0,0.0,0.0,0.0,0.0,0.0,0.0,1,0,0,0.0,1,0.0,2,1.0
2,12.97573333,14.52413,0.833333333,0,0.833333333,1.0,0,0.0,0.0,0.0,0.0,0.0,0.0,0.0,1,0,0,0.0,1,0.0,3,1.0
3,5.425338332999999,6.61347,1.0,0,1.0,1.0,0,0.0,0.0,0.0,0.0,0.0,0.0,0.0,1,0,0,0.0,1,0.0,4,1.0
4,15.591998,8.97162,0.4,0,0.4,0.0,0,0.0,0.0,0.0,0.0,0.0,0.0,0.0,1,0,0,0.0,1,0.0,5,1.0
5,117.22152,94.60941,0.9375,0,0.9375,1.0,0,0.0,0.0,0.0,0.0,0.0,0.0,0.0,0,0,0,0.0,1,0.0,6,1.0
6,8.55676,8.20171,0.7777777779999999,0,0.7777777779999999,1.0,0,0.0,0.0,0.0,0.0,0.0,0.0,0.0,1,0,0,0.0,1,0.0,7,1.0
7,8.186238000000001,16.00262,0.9,0,0.9,1.0,0,0.0,0.0,0.0,0.0,0.0,0.0,0.0,1,0,0,0.0,1,0.0,8,1.0
8,10.529096,22.56614,0.9,0,0.9,1.0,0,0.0,0.0,0.0,0.0,0.0,0.0,0.0,0,0,0,0.0,1,0.0,9,1.0
9,7.747791,10.37315,0.3,0,0.3,0.0,0,0.3,0.0,0.0,0.0,0.0,0.0,0.0,1,1,0,0.0,1,0.0,10,1.0
10,34.732057,14.8828,0.7777777779999999,1,0.7777777779999999,1.0,0,0.0,0.0,0.0,0.0,0.0,0.0,0.0,1,0,0,0.0,1,0.0,11,1.0
11,38.588025,49.98179,0.833333333,0,0.833333333,1.0,0,0.0,0.0,0.0,0.0,0.0,0.0,0.0,1,0,0,0.0,1,0.0,12,1.0
12,13.582223999999998,45.16073,0.8,0,0.8,1.0,0,0.0,0.0,0.0,0.0,0.0,0.0,0.0,1,0,0,0.0,1,0.0,13,1.0
13,7.572164999999999,6.94135,0.9,0,0.9,1.0,0,0.0,0.0,0.0,0.0,0.0,0.0,0.0,0,0,0,0.0,1,0.0,14,1.0
14,4.83553,0.54625,1.0,0,1.0,1.0,0,0.0,0.0,0.0,0.0,0.0,0.0,0.0,1,0,0,0.0,1,0.0,15,1.0
15,7.344188000000001,8.173630000000001,1.0,0,1.0,1.0,0,0.0,0.0,0.0,0.0,0.0,0.0,0.0,1,0,0,0.0,1,0.0,16,1.0
16,9.721728889,7.973210000000001,0.7777777779999999,0,0.7777777779999999,1.0,0,0.0,0.0,0.0,0.0,0.0,0.0,0.0,1,0,0,0.0,1,0.0,17,0.0
17,20.56286,25.15108,0.8,0,0.8,0.0,0,0.0,0.0,0.0,0.0,0.0,0.0,0.0,1,0,0,0.0,1,0.0,18,1.0
18,10.484175,9.72608,1.0,0,1.0,1.0,0,0.0,0.0,0.0,0.0,0.0,0.0,0.0,0,0,0,0.0,1,0.0,19,1.0
19,19.687386,27.50821,0.9,0,0.9,1.0,0,0.0,0.0,0.0,0.0,0.0,0.0,0.0,1,0,0,0.0,1,0.0,20,1.0
20,5.832383,0.8470799999999999,1.0,0,1.0,1.0,0,0.0,0.0,0.0,0.0,0.0,0.0,0.0,1,0,0,0.0,1,0.0,21,1.0
21,12.288709,24.8327,1.0,0,1.0,1.0,0,0.0,0.0,0.0,0.0,0.0,0.0,0.0,1,0,0,0.0,1,0.0,22,1.0
22,5.035986,0.60682,1.0,0,0.0,1.0,0,0.0,0.0,0.0,0.0,1.0,0.0,0.0,0,0,0,0.0,0,0.0,23,1.0
23,19.81052,10.45947,0.25,0,0.25,0.0,0,0.0,0.0,0.0,0.0,0.0,0.0,0.0,1,0,0,0.0,1,0.0,24,1.0
24,2.451302,9.47879,0.1,9,0.1,1.0,0,0.0,0.0,0.0,0.0,0.0,0.0,0.0,1,0,0,0.0,1,0.0,25,1.0
25,8.078938,11.17215,1.0,0,1.0,1.0,0,0.0,0.0,0.0,0.0,0.0,0.0,0.0,1,0,0,0.0,1,0.0,26,1.0
26,18.00536,5.48093,1.0,0,1.0,1.0,0,0.0,0.0,0.0,0.0,0.0,0.0,0.0,1,0,0,0.0,1,0.0,27,1.0
27,3.42635,0.85325,1.0,0,1.0,1.0,0,0.0,0.0,0.0,0.0,0.0,0.0,0.0,1,0,0,0.0,1,0.0,28,0.0
28,20.85758,20.85758,0.944,0,0.944,0.944,0,0.0,0.0,0.0,0.0,0.0,0.944,0.0,0,0,0,0.0,1,0.0,29,0.0
29,10.633724,12.4371,1.0,1,1.0,1.0,0,0.0,0.0,0.0,0.0,0.0,0.0,0.0,1,0,0,0.0,1,0.0,30,1.0
30,8.504925,9.76441,1.0,0,1.0,1.0,0,0.0,0.0,0.0,0.0,0.0,0.0,0.0,1,0,0,0.0,1,0.0,31,1.0
31,6.042822,0.8195899999999999,1.0,0,1.0,1.0,0,0.0,0.0,0.0,0.0,0.0,0.0,0.0,1,0,0,0.0,1,0.0,32,1.0
32,5.57472875,8.07105,1.0,1,1.0,1.0,0,0.0,0.0,0.0,0.0,0.0,0.0,0.0,1,0,0,0.0,1,0.0,33,1.0
33,11.46855625,5.45771,0.75,0,0.75,1.0,0,0.0,0.0,0.0,0.0,0.0,0.0,0.0,1,0,0,0.0,1,0.0,34,1.0
34,9.02842,9.02842,0.0,0,0.0,0.0,0,0.0,0.0,0.0,0.0,0.0,0.0,0.0,1,0,0,0.0,1,0.0,35,0.0
35,6.7287125,2.29361,1.0,0,1.0,1.0,0,0.0,0.0,0.0,0.0,0.0,0.0,0.0,1,0,0,0.0,1,0.0,36,1.0
36,34.037215,21.32131,0.8,0,0.8,1.0,0,0.0,0.0,0.0,0.0,0.0,0.0,0.0,1,0,0,0.0,1,0.0,37,1.0
37,50.308017,43.33601,0.8,0,0.8,1.0,0,0.0,0.0,0.0,0.0,0.0,0.0,0.0,1,0,0,0.0,1,0.0,38,1.0
38,7.705516999999999,7.113360000000001,1.0,0,1.0,1.0,0,0.0,0.0,0.0,0.0,0.0,0.0,0.0,1,0,0,0.0,1,0.0,39,1.0
39,9.780851,25.83849,1.0,0,1.0,1.0,0,0.0,0.0,0.0,0.0,0.0,0.0,0.0,0,0,0,0.0,1,0.0,40,1.0
40,75.85043,62.11182,0.875,0,0.0,1.0,0,0.0,0.0,0.0,0.0,0.0,0.0,0.0,1,0,0,0.0,0,0.0,41,1.0
41,6.706010000000001,7.32095,1.0,0,1.0,1.0,0,0.0,0.0,0.0,0.0,0.0,0.0,0.0,1,0,0,0.0,1,0.0,42,1.0
42,6.3466025,2.57937,1.0,0,1.0,1.0,0,0.0,0.0,0.0,0.0,0.0,0.0,0.0,1,0,0,0.0,1,0.0,43,1.0
43,9.56277,9.56277,0.0,1,0.0,0.0,0,0.0,0.0,0.0,0.0,0.0,0.0,0.0,1,0,0,0.0,1,0.0,44,1.0
44,5.974448571,5.9453,1.0,0,1.0,1.0,0,0.0,0.0,0.0,0.0,0.0,0.0,0.0,1,0,0,0.0,1,0.0,45,1.0
45,2.25494,2.25494,0.0,1,0.0,0.0,0,0.0,1.0,0.0,0.0,0.0,0.0,0.0,1,0,1,0.0,1,0.0,46,1.0
46,10.70402833,23.45431,1.0,0,1.0,1.0,0,0.0,0.0,0.0,0.0,0.0,0.0,0.0,0,0,0,0.0,1,0.0,47,1.0
47,8.620913999999999,28.38286,0.85,0,0.85,0.25,0,0.0,0.0,0.85,0.0,0.0,0.0,0.0,1,0,1,0.0,1,0.0,48,1.0
48,32.64574,24.58827,0.75,0,0.75,1.0,0,0.0,0.0,0.75,0.0,0.0,0.0,0.0,1,0,1,0.0,1,0.0,49,1.0
49,6.15712,10.18693,1.0,0,1.0,1.0,0,0.0,0.0,1.0,0.0,0.0,0.0,0.0,1,0,1,0.0,1,0.0,50,1.0
50,5.463892,15.15801,1.0,0,1.0,1.0,0,0.0,0.0,1.0,0.0,0.0,0.0,0.0,1,0,1,0.0,1,0.0,51,1.0
51,5.770162,11.56788,1.0,0,1.0,1.0,0,0.0,0.0,1.0,0.0,0.0,0.0,0.0,1,0,1,0.0,1,0.0,52,1.0
52,14.073938,15.78531,1.0,0,1.0,1.0,0,0.0,0.0,1.0,0.0,0.0,0.0,0.0,1,0,1,0.0,1,0.0,53,1.0
53,27.86254833,17.46099,0.833333333,0,0.833333333,1.0,0,0.0,0.0,0.0,0.0,0.0,0.0,0.0,0,0,0,0.0,1,0.0,54,1.0
54,9.85061,10.88636,0.85,0,0.85,1.0,1,0.0,1.0,0.85,0.0,0.0,0.0,0.0,1,0,1,0.0,1,0.0,55,1.0
55,14.054466,26.55692,0.9,0,0.9,1.0,0,0.0,0.0,0.9,0.0,0.0,0.0,0.0,1,0,1,0.0,1,0.0,56,1.0
56,11.124478,35.08704,1.0,0,1.0,1.0,0,0.0,1.0,1.0,0.0,0.0,0.0,0.0,1,0,1,0.0,1,0.0,57,1.0
57,106.884198,78.57566,0.7042,2,0.7042,0.5,0,0.0,0.0,0.0,0.0,0.0,0.0,0.0,0,0,0,0.0,1,0.0,58,1.0
58,2.637445,2.79461,0.0,0,0.0,0.0,0,0.0,0.0,0.0,0.0,0.0,0.0,0.0,0,0,0,0.0,1,0.0,59,1.0
59,16.598432,12.78763,0.85,0,0.85,1.0,0,0.0,0.0,0.85,0.0,0.0,0.0,0.0,1,0,1,0.0,1,0.0,60,1.0
60,5.442263333,7.19505,0.666666667,0,0.0,0.0,0,0.0,0.0,0.0,0.0,0.666666667,0.0,0.0,0,0,0,0.0,0,0.0,61,1.0
61,9.36816,6.97806,1.0,0,0.0,1.0,0,0.0,0.0,0.0,0.0,1.0,0.0,0.0,0,0,0,0.0,0,0.0,62,1.0
62,9.049738,13.87991,1.0,0,1.0,1.0,0,0.0,0.0,1.0,0.0,0.0,0.0,0.0,1,0,1,0.0,1,0.0,63,1.0
63,6.30287,3.67532,1.0,0,1.0,1.0,0,0.0,0.0,1.0,0.0,0.0,0.0,0.0,1,0,1,0.0,1,0.0,64,1.0
64,5.740261332999999,1.10711,1.0,0,0.0,1.0,0,0.0,0.0,0.0,0.0,1.0,0.0,0.0,1,0,0,0.0,0,0.0,65,1.0
65,23.24892333,25.56362,1.0,0,0.0,1.0,0,0.0,0.0,0.0,0.0,1.0,0.0,0.0,0,0,0,0.0,0,0.0,66,1.0
66,54.686438,15.968179999999998,1.0,0,1.0,1.0,0,0.0,0.0,1.0,0.0,0.0,0.0,0.0,1,0,1,0.0,1,0.0,67,1.0
67,25.60067833,127.48704,0.833333333,0,0.833333333,1.0,0,0.0,1.0,0.0,0.0,0.0,0.0,0.0,0,0,0,0.0,1,0.0,68,1.0
68,34.1945425,27.13818,0.875,0,0.875,1.0,0,0.0,0.0,0.875,0.0,0.0,0.0,0.0,1,0,1,0.0,1,0.0,69,1.0
69,22.67496,24.06255,1.0,0,1.0,1.0,0,0.0,1.0,1.0,0.0,0.0,0.0,0.0,1,0,1,0.0,1,0.0,70,1.0
70,4.209152,0.37293,1.0,0,1.0,1.0,0,0.0,1.0,0.0,0.0,0.0,0.0,0.0,1,0,0,0.0,1,0.0,71,1.0
71,5.192886,12.19786,1.0,0,1.0,1.0,0,0.0,0.0,1.0,0.0,0.0,0.0,0.0,1,0,1,0.0,1,0.0,72,1.0
72,15.04686,18.41684,1.0,0,1.0,1.0,0,0.0,0.0,0.0,0.0,0.0,0.0,0.0,0,0,0,0.0,1,0.0,73,0.0
73,9.617776667000001,27.11133,0.166666667,0,0.0,0.0,0,0.0,0.0,0.0,0.0,0.166666667,0.0,0.0,0,0,0,0.0,0,0.0,74,1.0
74,5.443906,14.26334,1.0,0,1.0,1.0,0,0.0,0.0,1.0,0.0,0.0,0.0,0.0,1,0,1,0.0,1,0.0,75,1.0
75,8.079342,22.31897,1.0,0,1.0,1.0,0,0.0,0.0,1.0,0.0,0.0,0.0,0.0,1,0,1,0.0,1,0.0,76,1.0
76,3.247496,3.03432,1.0,1,1.0,1.0,0,0.0,0.0,1.0,0.0,0.0,0.0,0.0,1,0,1,0.0,1,0.0,77,1.0
77,6.432302,4.9591400000000005,0.65,1,0.65,1.0,0,0.0,0.0,0.65,0.0,0.0,0.0,0.0,1,0,1,0.0,1,0.0,78,1.0
78,6.804232000000002,0.6249899999999999,0.6,0,0.6,1.0,0,0.0,0.0,0.0,0.0,0.0,0.0,0.0,1,0,0,0.0,1,0.0,79,0.0
79,17.184735,29.16401,1.0,0,1.0,1.0,0,0.0,0.0,1.0,0.0,0.0,0.0,0.0,1,0,1,0.0,1,0.0,80,0.0
80,17.82542333,39.20129,1.0,0,1.0,1.0,0,0.0,0.0,1.0,0.0,0.0,0.0,0.0,1,0,1,0.0,1,0.0,81,0.0
81,29.291194,31.16297,1.0,0,1.0,1.0,0,0.0,0.0,0.0,0.0,0.0,0.0,0.0,1,0,0,0.0,1,0.0,82,1.0
82,4.564374,5.600619999999998,0.8,1,0.8,1.0,0,0.0,0.0,0.0,0.0,0.0,0.0,0.0,1,0,0,0.0,1,0.0,83,1.0
83,8.641572,15.06167,0.5,2,0.5,1.0,0,0.0,0.0,0.5,0.0,0.0,0.0,0.0,1,0,1,0.0,1,0.0,84,1.0
84,18.509818,26.89873,1.0,0,0.0,1.0,0,0.0,0.0,0.0,0.0,1.0,0.0,0.0,0,0,0,0.0,0,0.0,85,1.0
85,35.85435333,27.78903,0.666666667,0,0.666666667,0.0,0,0.0,0.0,0.0,0.0,0.0,0.0,0.0,0,0,0,0.0,1,0.0,86,1.0
86,6.6716050000000005,9.34411,1.0,0,1.0,1.0,0,0.0,0.0,1.0,0.0,0.0,0.0,0.0,1,0,1,0.0,1,0.0,87,0.0
87,5.156068,11.50192,1.0,0,1.0,1.0,0,0.0,0.0,1.0,0.0,0.0,0.0,0.0,1,0,1,0.0,1,0.0,88,1.0
88,8.03777,12.4568,1.0,0,1.0,1.0,0,0.0,0.0,1.0,0.0,0.0,0.0,0.0,1,0,1,0.0,1,0.0,89,1.0
89,6.360130000000002,6.360130000000002,0.0,1,0.0,0.0,0,0.0,0.0,0.0,0.0,0.0,0.0,0.0,1,0,1,0.0,1,0.0,90,0.0
90,7.882358,7.284389999999998,1.0,0,1.0,1.0,0,0.0,0.0,1.0,0.0,0.0,0.0,0.0,1,0,1,0.0,1,0.0,91,1.0
91,18.080516,18.83416,1.0,0,1.0,1.0,0,0.0,0.0,1.0,0.0,0.0,0.0,0.0,1,0,1,0.0,1,0.0,92,1.0
92,53.161228,11.28413,0.9,0,0.9,1.0,0,0.0,0.0,0.9,0.0,0.0,0.0,0.0,1,0,1,0.0,1,0.0,93,1.0
93,17.512705,19.90051,1.0,0,1.0,1.0,0,0.0,0.0,1.0,0.0,0.0,0.0,0.0,1,0,1,0.0,1,0.0,94,0.0
94,15.022712,22.93278,1.0,0,1.0,1.0,0,0.0,0.0,1.0,0.0,0.0,0.0,0.0,1,0,1,0.0,1,0.0,95,1.0
95,3.526522,3.38092,1.0,0,1.0,1.0,0,0.0,0.0,1.0,0.0,0.0,0.0,0.0,1,0,1,0.0,1,0.0,96,1.0
96,14.095615,20.4772,1.0,0,1.0,1.0,0,0.0,0.0,1.0,0.0,0.0,0.0,0.0,1,0,1,0.0,1,0.0,97,1.0
97,7.062316,11.75167,1.0,0,1.0,1.0,0,0.0,0.0,1.0,0.0,0.0,0.0,0.0,1,0,1,0.0,1,0.0,98,1.0
98,12.712318,7.90442,1.0,0,1.0,1.0,0,0.0,0.0,1.0,0.0,0.0,0.0,0.0,1,0,1,0.0,1,0.0,99,1.0
99,4.1868919999999985,4.8199,1.0,0,1.0,1.0,0,0.0,0.0,1.0,0.0,0.0,0.0,0.0,1,0,1,0.0,1,0.0,100,1.0
100,8.656118,6.62795,0.0,5,0.0,0.0,0,0.0,0.0,0.0,0.0,0.0,0.0,0.0,1,0,1,0.0,1,0.0,101,1.0
101,8.033206,4.33875,1.0,0,1.0,1.0,0,0.0,0.0,1.0,0.0,0.0,0.0,0.0,1,0,1,0.0,1,0.0,102,1.0
102,3.254918,2.1516,1.0,0,1.0,1.0,0,0.0,0.0,1.0,0.0,0.0,0.0,0.0,1,0,1,0.0,1,0.0,103,1.0
103,12.26554333,1.54761,1.0,0,1.0,1.0,0,0.0,0.0,0.0,0.0,0.0,0.0,0.0,0,0,0,0.0,1,0.0,104,1.0
104,39.027748,80.38450999999998,1.0,0,1.0,1.0,0,0.0,0.0,1.0,0.0,0.0,0.0,0.0,1,0,1,0.0,1,0.0,105,1.0
105,7.16587,8.55938,1.0,0,1.0,1.0,0,0.0,0.0,1.0,0.0,0.0,0.0,0.0,1,0,1,0.0,1,0.0,106,1.0
106,15.044238,60.00503000000001,1.0,0,1.0,1.0,0,0.0,0.0,1.0,0.0,0.0,0.0,0.0,1,0,1,0.0,1,0.0,107,1.0
107,9.301728,24.11833,0.8,1,0.8,1.0,0,0.0,0.0,0.8,0.0,0.0,0.0,0.0,1,0,1,0.0,1,0.0,108,1.0
108,3.172998,4.3472300000000015,1.0,0,1.0,1.0,0,0.0,0.0,1.0,0.0,0.0,0.0,0.0,1,0,1,0.0,1,0.0,109,1.0
109,9.775854,6.4569,0.8,0,0.8,1.0,0,0.0,0.0,0.0,0.0,0.0,0.0,0.0,1,0,0,0.0,1,0.0,110,1.0
110,12.231268,41.01953,1.0,0,1.0,1.0,0,0.0,0.0,1.0,0.0,0.0,0.0,0.0,1,0,1,0.0,1,0.0,111,1.0
111,11.30678,11.30678,1.0,0,1.0,1.0,0,0.0,0.0,0.0,0.0,0.0,0.0,0.0,0,0,0,0.0,1,0.0,112,0.0
112,28.13036,75.71441999999998,1.0,0,1.0,1.0,0,0.0,0.0,1.0,0.0,0.0,0.0,0.0,1,0,1,0.0,1,0.0,113,1.0
113,4.583322,10.46363,1.0,0,1.0,1.0,0,0.0,0.0,1.0,0.0,0.0,0.0,0.0,1,0,1,0.0,1,0.0,114,1.0
114,4.918398000000002,3.43309,1.0,0,1.0,1.0,0,0.0,0.0,0.0,0.0,0.0,0.0,0.0,1,0,0,0.0,1,0.0,115,1.0
115,8.087823333,18.51549,0.666666667,1,0.666666667,1.0,0,0.0,0.0,0.666666667,0.0,0.0,0.0,0.0,1,0,1,0.0,1,0.0,116,0.0
116,24.806305,81.70378000000002,0.666666667,0,0.0,1.0,0,0.0,0.0,0.0,0.0,0.666666667,0.0,0.0,0,0,0,0.0,0,0.0,117,1.0
117,5.717226,10.20421,1.0,0,1.0,1.0,0,0.0,0.0,1.0,0.0,0.0,0.0,0.0,1,0,1,0.0,1,0.0,118,1.0
118,18.58289333,19.65998,0.833333333,0,0.0,1.0,0,0.0,0.0,0.0,0.0,0.833333333,0.0,0.0,0,0,0,0.0,0,0.0,119,1.0
119,14.518122,12.64244,1.0,0,0.0,1.0,0,0.0,0.0,0.0,0.0,0.0,0.0,0.0,1,0,0,0.0,0,0.0,120,1.0
120,7.5662660000000015,8.2951,0.9,0,0.9,1.0,0,0.0,0.0,0.9,0.0,0.0,0.0,0.0,1,0,1,0.0,1,0.0,121,1.0
121,69.186645,61.04618000000001,1.0,0,0.0,1.0,0,0.0,0.0,0.0,0.0,1.0,0.0,0.0,0,0,0,0.0,0,0.0,122,1.0
122,32.616331,47.33014,0.8,0,0.8,1.0,0,0.0,0.0,0.0,0.0,0.0,0.0,0.0,0,0,0,0.0,1,0.0,123,1.0
123,11.534138,6.85134,0.9,0,0.9,1.0,0,0.0,0.0,0.9,0.0,0.0,0.0,0.0,1,0,1,0.0,1,0.0,124,1.0
124,7.312653999999998,20.26471,1.0,0,1.0,1.0,0,0.0,0.0,1.0,0.0,0.0,0.0,0.0,1,0,1,0.0,1,0.0,125,1.0
125,3.674914,3.7797,1.0,0,1.0,1.0,0,0.0,0.0,1.0,0.0,0.0,0.0,0.0,1,0,1,0.0,1,0.0,126,1.0
126,15.873932,28.41111,0.9,0,0.9,1.0,0,0.0,0.0,0.9,0.0,0.0,0.0,0.0,1,0,1,0.0,1,0.0,127,1.0
127,13.861574,38.01205,0.75,0,0.75,0.5,0,0.0,0.0,0.75,0.0,0.0,0.0,0.0,1,0,1,0.0,1,0.0,128,1.0
128,241.96359,33.36403,1.0,0,1.0,1.0,0,0.0,0.0,1.0,0.0,0.0,0.0,0.0,1,0,1,0.0,1,0.0,129,0.0
129,13.81569833,37.86855,1.0,0,1.0,1.0,0,0.0,0.0,0.0,0.0,0.0,0.0,0.0,0,0,0,0.0,1,0.0,130,1.0
130,16.96567333,12.95892,1.0,0,0.0,1.0,0,0.0,0.0,0.0,0.0,1.0,0.0,0.0,0,0,0,0.0,0,0.0,131,1.0
131,114.817097,188.25535,0.875,0,0.875,0.625,0,0.0,0.0,0.0,0.0,0.0,0.0,0.0,1,0,0,0.0,1,0.0,132,1.0
132,20.591834,20.57313,1.0,0,1.0,1.0,0,0.0,0.0,1.0,0.0,0.0,0.0,0.0,1,0,1,0.0,1,0.0,133,1.0
133,18.52175167,43.66592,0.833333333,0,0.0,0.0,0,0.0,0.0,0.0,0.0,0.833333333,0.0,0.0,0,0,0,0.0,0,0.0,134,1.0
134,7.81747,10.66709,0.75,0,0.75,1.0,0,0.0,0.0,0.75,0.0,0.0,0.0,0.0,1,0,1,0.0,1,0.0,135,1.0
135,8.842267999999997,31.58568,1.0,0,1.0,1.0,0,0.0,0.0,1.0,0.0,0.0,0.0,0.0,1,0,1,0.0,1,0.0,136,1.0
136,15.94071,38.54728,1.0,0,1.0,1.0,0,0.0,0.0,1.0,0.0,0.0,0.0,0.0,1,0,1,0.0,1,0.0,137,1.0
137,14.94813667,14.7411,1.0,0,1.0,1.0,0,0.0,0.0,0.0,0.0,0.0,0.0,0.0,0,0,0,0.0,1,0.0,138,1.0
138,5.741596,6.20971,1.0,0,1.0,1.0,0,0.0,0.0,1.0,0.0,0.0,0.0,0.0,1,0,1,0.0,1,0.0,139,1.0
139,0.7665,1.48863,0.0,5,0.0,0.0,0,0.0,0.0,0.0,0.0,0.0,0.0,0.0,1,0,1,0.0,1,0.0,140,1.0
140,8.757048,12.02811,1.0,0,1.0,1.0,0,0.0,0.0,1.0,0.0,0.0,0.0,0.0,1,0,1,0.0,1,0.0,141,1.0
141,1.82338,0.48307,0.0,2,0.0,0.0,0,0.0,0.0,0.0,0.0,0.0,0.0,0.0,1,0,1,0.0,1,0.0,142,0.0
142,3.280146,3.00837,1.0,0,1.0,1.0,0,0.0,0.0,1.0,0.0,0.0,0.0,0.0,1,0,1,0.0,1,0.0,143,1.0
143,11.6353,11.6353,1.0,0,1.0,1.0,0,0.0,0.0,0.0,0.0,0.0,0.0,0.0,1,0,0,0.0,1,0.0,144,0.0
144,7.628433999999999,18.18965,1.0,0,1.0,1.0,0,0.0,0.0,1.0,0.0,0.0,0.0,0.0,1,0,1,0.0,1,0.0,145,1.0
145,25.192925,52.87506,0.5,0,0.5,1.0,0,0.0,0.0,0.0,0.0,0.0,0.0,0.0,0,0,0,0.0,1,0.0,146,1.0
146,4.086422,8.429960000000001,1.0,0,1.0,1.0,0,0.0,0.0,1.0,0.0,0.0,0.0,0.0,1,0,1,0.0,1,0.0,147,1.0
147,6.711028,15.07417,1.0,0,1.0,1.0,0,0.0,0.0,0.0,0.0,0.0,0.0,0.0,1,0,0,0.0,1,0.0,148,1.0
148,21.167992,60.86144,0.8,1,0.8,0.0,0,0.0,0.0,0.8,0.0,0.0,0.0,0.0,1,0,1,0.0,1,0.0,149,1.0
149,4.4455160000000005,4.72591,1.0,0,1.0,1.0,0,0.0,0.0,1.0,0.0,0.0,0.0,0.0,1,0,1,0.0,1,0.0,150,1.0
150,13.722966,15.77916,0.9,0,0.9,1.0,0,0.0,0.0,0.9,0.0,0.0,0.0,0.0,1,0,1,0.0,1,0.0,151,1.0
151,17.83553,17.83553,0.0,1,0.0,0.0,0,0.0,0.0,0.0,0.0,0.0,0.0,0.0,1,0,1,0.0,1,0.0,152,0.0
152,12.167095,27.77655,1.0,0,0.0,1.0,0,0.0,1.0,0.0,0.0,1.0,0.0,0.0,0,0,0,0.0,0,0.0,153,1.0
153,5.882232,13.15966,1.0,0,1.0,1.0,0,0.0,0.0,1.0,0.0,0.0,0.0,0.0,1,0,1,0.0,1,0.0,154,1.0
154,7.825962,14.94085,1.0,0,1.0,1.0,0,0.0,1.0,1.0,0.0,0.0,0.0,0.0,1,0,1,0.0,1,0.0,155,1.0
155,8.031624,4.89007,1.0,0,1.0,1.0,0,0.0,0.0,1.0,0.0,0.0,0.0,0.0,1,0,1,0.0,1,0.0,156,1.0
156,22.44522667,43.8396,0.0,0,0.0,0.0,0,0.0,0.0,0.0,0.0,0.0,0.0,0.0,1,0,0,0.0,1,0.0,157,1.0
157,5.329855,8.36053,1.0,0,1.0,1.0,0,0.0,0.0,1.0,0.0,0.0,0.0,0.0,1,0,1,0.0,1,0.0,158,1.0
158,4.9130400000000005,11.88547,1.0,0,1.0,1.0,0,0.0,0.0,1.0,0.0,0.0,0.0,0.0,1,0,1,0.0,1,0.0,159,1.0
159,3.37969,3.50682,1.0,0,1.0,1.0,0,0.0,0.0,1.0,0.0,0.0,0.0,0.0,1,0,1,0.0,1,0.0,160,1.0
160,30.287782,90.71974,0.65,1,0.65,0.0,0,0.0,0.0,0.65,0.0,0.0,0.0,0.0,1,0,1,0.0,1,0.0,161,1.0
161,6.381814,20.47681,0.0,5,0.0,0.0,0,0.0,0.0,0.0,0.0,0.0,0.0,0.0,1,0,1,0.0,1,0.0,162,1.0
162,4.135938,4.31154,1.0,0,1.0,1.0,0,0.0,0.0,1.0,0.0,0.0,0.0,0.0,1,0,1,0.0,1,0.0,163,1.0
163,11.60481,19.07635,0.8,0,0.8,0.5,0,0.0,0.0,0.8,0.0,0.0,0.0,0.0,1,0,1,0.0,1,0.0,164,1.0
164,5.984408,5.36381,1.0,0,1.0,1.0,0,0.0,0.0,1.0,0.0,0.0,0.0,0.0,1,0,1,0.0,1,0.0,165,1.0
165,55.622252,227.74817,0.75,0,0.75,1.0,0,0.0,0.0,0.75,0.0,0.0,0.0,0.0,1,0,1,0.0,1,0.0,166,1.0
166,4.80504,4.80504,1.0,0,1.0,1.0,0,0.0,0.0,0.0,0.0,0.0,0.0,0.0,1,0,0,0.0,1,0.0,167,0.0
167,22.66574,22.66574,1.0,0,1.0,1.0,0,0.0,0.0,0.0,0.0,0.0,0.0,1.0,0,0,0,0.0,1,0.0,168,1.0
168,18.85749,5.9684,0.8,1,0.8,1.0,0,0.0,0.0,0.8,0.0,0.0,0.0,0.0,1,0,1,0.0,1,0.0,169,1.0
169,10.601068,17.8055,1.0,0,1.0,1.0,0,0.0,1.0,1.0,0.0,0.0,0.0,0.0,1,0,1,0.0,1,0.0,170,1.0
170,16.408241,12.8504,1.0,0,1.0,1.0,0,0.0,0.0,0.0,0.0,0.0,0.0,0.0,0,0,0,0.0,1,1.0,171,1.0
171,14.805682,32.798190000000005,1.0,0,1.0,1.0,0,0.0,0.0,1.0,0.0,0.0,0.0,0.0,1,0,1,0.0,1,0.0,172,1.0
172,16.949052,15.57835,1.0,0,1.0,1.0,0,0.0,0.0,1.0,0.0,0.0,0.0,0.0,1,0,1,0.0,1,0.0,173,1.0
173,12.4605,43.18246,1.0,0,1.0,1.0,0,0.0,1.0,0.0,0.0,0.0,0.0,0.0,1,0,0,0.0,1,0.0,174,1.0
174,5.361669999999998,11.06693,1.0,0,1.0,1.0,0,0.0,1.0,1.0,0.0,0.0,0.0,0.0,1,0,1,0.0,1,0.0,175,1.0
175,11.525874,13.5673,1.0,0,0.0,1.0,0,0.0,0.0,0.0,0.0,1.0,0.0,0.0,0,0,0,0.0,0,0.0,176,1.0
176,8.344923332999999,9.69836,1.0,0,0.0,1.0,0,0.0,0.0,0.0,0.0,1.0,0.0,0.0,0,0,0,0.0,0,0.0,177,1.0
177,9.009821667,7.057860000000002,1.0,0,1.0,1.0,0,0.0,0.0,0.0,0.0,0.0,0.0,0.0,0,0,0,0.0,1,0.0,178,1.0
178,3.999172,10.51597,0.8,1,0.8,1.0,0,0.0,0.0,0.8,0.0,0.0,0.0,0.0,1,0,1,0.0,1,0.0,179,1.0
179,18.005545,34.656620000000004,1.0,0,0.0,1.0,0,0.0,0.0,0.0,0.0,1.0,0.0,0.0,0,0,0,0.0,0,0.0,180,1.0
180,5.981562,2.8744400000000003,1.0,0,1.0,1.0,0,0.0,0.0,1.0,0.0,0.0,0.0,0.0,1,0,1,0.0,1,0.0,181,1.0
181,11.38245,13.16339,1.0,0,1.0,1.0,0,0.0,0.0,1.0,0.0,0.0,0.0,0.0,1,0,1,0.0,1,0.0,182,1.0
182,50.67147375,73.02745,1.0,0,1.0,1.0,0,0.0,0.0,0.0,0.0,0.0,0.0,0.0,0,0,0,0.0,1,0.0,183,0.0
183,8.123834,7.30727,0.75,0,0.75,1.0,0,0.0,0.0,0.75,0.0,0.0,0.0,0.0,1,0,1,0.0,1,0.0,184,1.0
184,4.4850379999999985,5.62249,1.0,0,1.0,1.0,0,0.0,0.0,0.0,0.0,0.0,0.0,1.0,0,0,0,0.0,1,0.0,185,1.0
185,68.92848333,72.76716,0.666666667,1,0.666666667,1.0,0,0.0,0.0,0.0,0.0,0.0,0.0,0.0,0,0,0,0.0,1,0.0,186,1.0
186,4.40425,8.06753,1.0,0,1.0,1.0,0,0.0,0.0,1.0,0.0,0.0,0.0,0.0,1,0,1,0.0,1,0.0,187,1.0
187,6.024156,13.34514,1.0,0,1.0,1.0,0,0.0,0.0,1.0,0.0,0.0,0.0,0.0,1,0,1,0.0,1,0.0,188,0.0
188,13.29636833,12.44903,1.0,0,0.0,1.0,0,0.0,0.0,0.0,0.0,1.0,0.0,0.0,0,0,0,0.0,0,0.0,189,1.0
189,8.8243,28.265320000000006,0.5,2,0.5,0.5,0,0.0,0.0,0.5,0.0,0.0,0.0,0.0,1,0,1,0.0,1,0.0,190,0.0
190,19.99949167,13.96782,0.666666667,0,0.0,1.0,0,0.0,0.0,0.0,0.0,0.666666667,0.0,0.0,0,0,0,0.0,0,0.0,191,1.0
191,2.645866,2.58648,1.0,0,1.0,1.0,0,0.0,0.0,1.0,0.0,0.0,0.0,0.0,1,0,1,0.0,1,0.0,192,1.0
192,3.258404,3.64726,1.0,0,1.0,1.0,0,0.0,0.0,1.0,0.0,0.0,0.0,0.0,1,0,1,0.0,1,0.0,193,1.0
193,14.76637333,30.33462,1.0,0,1.0,1.0,0,0.0,0.0,1.0,0.0,0.0,0.0,0.0,1,0,1,0.0,1,0.0,194,1.0
194,7.371974000000002,12.0958,0.9,0,0.9,1.0,0,0.0,0.0,0.9,0.0,0.0,0.0,0.0,1,0,1,0.0,1,0.0,195,1.0
195,8.076306,7.6737600000000015,0.6,0,0.6,1.0,0,0.0,0.0,0.0,0.0,0.0,0.0,0.0,1,0,0,0.0,1,0.0,196,1.0
196,15.72065,27.94088,1.0,0,1.0,1.0,0,0.0,0.0,1.0,0.0,0.0,0.0,0.0,1,0,1,0.0,1,0.0,197,1.0
197,6.433882,14.62005,0.9,0,0.9,1.0,0,0.0,0.0,0.9,0.0,0.0,0.0,0.0,1,0,1,0.0,1,0.0,198,1.0
198,5.05131,5.05131,1.0,0,1.0,1.0,0,0.0,0.0,1.0,0.0,0.0,0.0,0.0,1,0,1,0.0,1,0.0,199,0.0
199,4.279416,8.048580000000001,1.0,0,1.0,1.0,0,0.0,0.0,1.0,0.0,0.0,0.0,0.0,1,0,1,0.0,1,0.0,200,1.0
200,22.681520000000006,22.681520000000006,0.5,0,0.5,0.5,0,0.0,0.0,0.5,0.0,0.0,0.0,0.0,1,0,1,0.0,1,0.0,201,0.0
201,9.433646667,16.31846,1.0,0,1.0,1.0,0,0.0,0.0,1.0,0.0,0.0,0.0,0.0,1,0,1,0.0,1,0.0,202,1.0
202,11.64280667,7.6720000000000015,0.666666667,1,0.666666667,0.0,0,0.0,0.0,0.666666667,0.0,0.0,0.0,0.0,1,0,1,0.0,1,0.0,203,1.0
203,13.36583333,15.590979999999998,1.0,0,1.0,1.0,0,0.0,0.0,1.0,0.0,0.0,0.0,0.0,1,0,1,0.0,1,0.0,204,1.0
204,201.330085,41.45572,0.5415,0,0.0,0.833,0,0.0,0.0,0.0,0.0,0.5415,0.5415,0.0,0,0,0,0.0,0,0.0,205,1.0
205,17.08344,30.23362,1.0,0,1.0,1.0,0,0.0,0.0,1.0,0.0,0.0,0.0,0.0,1,0,1,0.0,1,0.0,206,1.0
206,13.72583667,13.64449,1.0,0,1.0,1.0,0,0.0,0.0,1.0,0.0,0.0,0.0,0.0,1,0,1,0.0,1,0.0,207,1.0
207,38.58625,49.96038,0.9165,0,0.9165,0.833,0,0.0,0.0,0.0,0.9165,0.0,0.0,0.0,0,0,0,0.0,1,0.0,208,1.0
208,3.5493333330000003,5.38396,0.666666667,1,0.666666667,1.0,0,0.0,0.0,0.666666667,0.0,0.0,0.0,0.0,1,0,1,0.0,1,0.0,209,1.0
209,4.94281,4.9638,1.0,0,1.0,1.0,0,0.0,0.0,0.0,0.0,0.0,0.0,0.0,0,0,0,0.0,1,0.0,210,1.0
210,15.790025,17.62415,1.0,0,1.0,1.0,0,0.0,0.0,0.0,1.0,0.0,0.0,0.0,0,0,0,0.0,1,0.0,211,1.0
211,24.65498,24.8393,0.6665,1,0.6665,0.333,0,0.0,0.0,0.0,0.6665,0.0,0.0,0.0,0,0,0,0.0,1,0.0,212,0.0
212,9.230246667000001,18.12403,1.0,0,1.0,1.0,0,0.0,0.0,1.0,0.0,0.0,0.0,0.0,1,0,1,0.0,1,0.0,213,1.0
213,2.50677,1.98452,1.0,0,1.0,1.0,0,0.0,0.0,1.0,0.0,0.0,0.0,0.0,1,0,1,0.0,1,0.0,214,1.0
214,21.19728333,47.55639,1.0,0,1.0,1.0,0,0.0,0.0,0.0,0.0,0.0,0.0,0.0,1,0,0,0.0,1,0.0,215,1.0
215,3.57824,5.56766,1.0,0,1.0,1.0,0,0.0,0.0,1.0,0.0,0.0,0.0,0.0,1,0,1,0.0,1,0.0,216,1.0
216,48.953515,60.77686,0.944,0,0.944,0.944,0,0.0,1.0,0.0,0.944,0.0,0.0,0.0,0,0,0,0.0,1,0.0,217,1.0
217,24.236305,23.93057,0.861,0,0.0,0.833,0,0.0,0.0,0.0,0.0,0.861,0.861,0.0,0,0,0,0.0,0,0.0,218,1.0
218,2.7204933330000003,2.17866,1.0,0,1.0,1.0,0,0.0,0.0,1.0,0.0,0.0,0.0,0.0,1,0,1,0.0,1,0.0,219,1.0
219,35.04574,45.82734,0.972,0,0.972,0.944,0,0.0,0.0,0.0,0.972,0.0,0.0,0.0,0,0,0,0.0,1,0.0,220,1.0
220,12.547,17.89295,1.0,0,1.0,1.0,0,0.0,0.0,1.0,0.0,0.0,0.0,0.0,1,0,1,0.0,1,0.0,221,1.0
221,14.57419,12.71347,0.5,1,0.5,0.0,0,0.0,0.0,0.5,0.0,0.0,0.0,0.0,1,0,1,0.0,1,0.0,222,1.0
222,6.356713332999999,12.95353,1.0,0,1.0,1.0,0,0.0,0.0,1.0,0.0,0.0,0.0,0.0,1,0,1,0.0,1,0.0,223,1.0
223,7.812853333,6.1845300000000005,1.0,0,1.0,1.0,0,0.0,0.0,1.0,0.0,0.0,0.0,0.0,1,0,1,0.0,1,0.0,224,1.0
224,4.766543333,8.65053,1.0,0,1.0,1.0,0,0.0,0.0,1.0,0.0,0.0,0.0,0.0,1,0,1,0.0,1,0.0,225,1.0
225,50.68187,43.34423,0.9445,0,0.0,1.0,0,0.0,0.0,0.0,0.0,0.9445,0.9445,0.0,0,0,0,0.0,0,0.0,226,1.0
226,7.03592,13.11523,1.0,0,1.0,1.0,0,0.0,1.0,1.0,0.0,0.0,0.0,0.0,1,0,1,0.0,1,0.0,227,1.0
227,44.617875,37.31245,0.972,0,0.0,1.0,0,0.0,0.0,0.0,0.0,0.972,0.972,0.0,0,0,0,0.0,0,0.0,228,1.0
228,12.27694333,26.21661,1.0,0,1.0,1.0,0,0.0,0.0,1.0,0.0,0.0,0.0,0.0,1,0,1,0.0,1,0.0,229,1.0
229,9.346906667,20.50679,1.0,0,1.0,1.0,0,0.0,0.0,1.0,0.0,0.0,0.0,0.0,1,0,1,0.0,1,0.0,230,1.0
230,22.016235,20.62796,0.972,0,0.972,1.0,0,0.0,0.0,0.0,0.972,0.0,0.0,0.0,0,0,0,0.0,1,0.0,231,1.0
231,5.887826667000001,7.38017,1.0,0,1.0,1.0,0,0.0,0.0,1.0,0.0,0.0,0.0,0.0,1,0,1,0.0,1,0.0,232,1.0
232,2.056726667,1.40304,1.0,0,1.0,1.0,0,0.0,0.0,0.0,0.0,0.0,0.0,0.0,1,0,0,0.0,1,0.0,233,1.0
233,10.96502,16.83781,1.0,0,1.0,1.0,0,0.0,0.0,1.0,0.0,0.0,0.0,0.0,1,0,1,0.0,1,0.0,234,1.0
234,3.5733,4.48209,1.0,0,1.0,1.0,0,0.0,0.0,1.0,0.0,0.0,0.0,0.0,1,0,1,0.0,1,0.0,235,1.0
235,51.313985,53.08714000000001,0.861,0,0.0,0.944,0,0.0,0.0,0.0,0.0,0.861,0.861,0.0,0,0,0,0.0,0,0.0,236,1.0
236,5.37626,7.032210000000001,1.0,0,1.0,1.0,0,0.0,0.0,0.0,0.0,0.0,0.0,0.0,1,0,0,0.0,1,0.0,237,
237,5.03247,9.67884,1.0,0,1.0,1.0,0,0.0,0.0,1.0,0.0,0.0,0.0,0.0,1,0,1,0.0,1,0.0,238,1.0
238,3.83239,5.05248,1.0,0,1.0,1.0,0,0.0,0.0,1.0,0.0,0.0,0.0,0.0,1,0,1,0.0,1,0.0,239,1.0
239,3.70449,5.6885,1.0,0,1.0,1.0,0,0.0,0.0,1.0,0.0,0.0,0.0,0.0,1,0,1,0.0,1,0.0,240,1.0
240,1.9970900000000005,1.9970900000000005,0.0,1,0.0,0.0,0,0.0,0.0,0.0,0.0,0.0,0.0,0.0,0,0,0,0.0,1,0.0,241,1.0
241,49.968685,43.43833,0.6665,0,0.0,0.889,0,0.0,1.0,0.0,0.0,0.6665,0.6665,0.0,0,0,0,0.0,0,0.0,242,1.0
242,26.825555,31.61059,0.8885,0,0.8885,0.833,0,0.0,0.0,0.0,0.8885,0.0,0.0,0.0,0,0,0,0.0,1,0.0,243,1.0
243,2.227243333,1.4880000000000002,1.0,0,1.0,1.0,0,0.0,0.0,1.0,0.0,0.0,0.0,0.0,1,0,1,0.0,1,0.0,244,1.0
244,36.785405,37.3115,1.0,0,0.0,1.0,0,0.0,0.0,0.0,0.0,1.0,1.0,0.0,0,0,0,0.0,0,0.0,245,1.0
245,21.17909667,19.493920000000006,1.0,0,1.0,1.0,0,0.0,0.0,1.0,0.0,0.0,0.0,0.0,1,0,1,0.0,1,0.0,246,1.0
246,4.388366667,7.86653,1.0,0,1.0,1.0,0,0.0,0.0,1.0,0.0,0.0,0.0,0.0,1,0,1,0.0,1,0.0,247,1.0
247,30.125555,39.91086,1.0,0,1.0,1.0,0,0.0,0.0,0.0,1.0,0.0,0.0,0.0,0,0,0,0.0,1,0.0,248,1.0
248,4.43697,6.87818,1.0,0,1.0,1.0,0,0.0,0.0,1.0,0.0,0.0,0.0,0.0,1,0,1,0.0,1,0.0,249,1.0
249,4.83257,5.37911,1.0,0,1.0,1.0,0,0.0,0.0,1.0,0.0,0.0,0.0,0.0,1,0,1,0.0,1,0.0,250,1.0
250,6.964153333,15.19512,1.0,0,1.0,1.0,0,0.0,0.0,0.0,0.0,0.0,0.0,0.0,1,0,0,0.0,1,0.0,251,1.0
251,3.1219333330000003,4.43562,1.0,0,1.0,1.0,0,0.0,0.0,1.0,0.0,0.0,0.0,0.0,1,0,1,0.0,1,0.0,252,1.0
252,11.45568667,17.60953,1.0,0,1.0,1.0,0,0.0,0.0,1.0,0.0,0.0,0.0,0.0,1,0,1,0.0,1,0.0,253,1.0
253,3.127546667,3.5777,1.0,0,1.0,1.0,0,0.0,0.0,1.0,0.0,0.0,0.0,0.0,1,0,1,0.0,1,0.0,254,1.0
254,3.92891,4.0312800000000015,1.0,0,1.0,1.0,0,0.0,0.0,0.0,0.0,0.0,0.0,0.0,0,0,0,0.0,1,0.0,255,1.0
255,10.86595,1.03429,0.666666667,1,0.666666667,0.0,0,0.0,1.0,0.666666667,0.0,0.0,0.0,0.0,1,0,1,0.0,1,0.0,256,1.0
256,33.97377333,48.85122,1.0,0,1.0,1.0,0,0.0,0.0,1.0,0.0,0.0,0.0,0.0,1,0,1,0.0,1,0.0,257,1.0
257,2.5379400000000003,1.4662,1.0,0,1.0,1.0,0,0.0,0.0,0.0,0.0,0.0,0.0,0.0,1,0,0,0.0,1,0.0,258,1.0
258,2.680226667,1.75882,1.0,0,1.0,1.0,0,0.0,0.0,1.0,0.0,0.0,0.0,0.0,1,0,1,0.0,1,0.0,259,1.0
259,7.077546667000001,10.04874,1.0,0,1.0,1.0,0,0.0,0.0,1.0,0.0,0.0,0.0,0.0,1,0,1,0.0,1,0.0,260,1.0
260,8.90296,15.29551,1.0,0,1.0,1.0,0,0.0,0.0,1.0,0.0,0.0,0.0,0.0,1,0,1,0.0,1,0.0,261,1.0
261,4.390846667,5.31853,1.0,0,1.0,1.0,0,0.0,0.0,1.0,0.0,0.0,0.0,0.0,1,0,1,0.0,1,0.0,262,1.0
262,21.948665,27.3027,0.972,0,0.972,0.944,0,0.0,0.0,0.0,0.972,0.0,0.0,0.0,0,0,0,0.0,1,0.0,263,1.0
263,4.1598,5.85949,1.0,0,1.0,1.0,0,0.0,1.0,1.0,0.0,0.0,0.0,0.0,1,0,1,0.0,1,0.0,264,1.0
264,10.53664,13.23657,1.0,0,1.0,1.0,0,0.0,0.0,1.0,0.0,0.0,0.0,0.0,1,0,1,0.0,1,0.0,265,1.0
265,6.508656667,8.077910000000001,1.0,0,1.0,1.0,0,0.0,0.0,1.0,0.0,0.0,0.0,0.0,1,0,1,0.0,1,0.0,266,1.0
266,10.30405667,9.90825,1.0,0,1.0,1.0,0,0.0,0.0,1.0,0.0,0.0,0.0,0.0,1,0,1,0.0,1,0.0,267,1.0
267,5.910653333,11.9072,1.0,0,1.0,1.0,0,0.0,1.0,1.0,0.0,0.0,0.0,0.0,1,0,1,0.0,1,0.0,268,1.0
268,96.687285,61.41181,0.9445,0,0.0,0.889,0,0.0,0.0,0.0,0.0,0.9445,0.9445,0.0,0,0,0,0.0,0,0.0,269,1.0
269,121.64123,121.64123,0.5,0,0.5,0.5,0,0.0,0.0,0.5,0.0,0.0,0.0,0.0,1,0,1,0.0,1,0.0,270,0.0
270,7.903963332999999,8.325610000000001,1.0,0,1.0,1.0,0,0.0,0.0,1.0,0.0,0.0,0.0,0.0,1,0,1,0.0,1,0.0,271,1.0
271,8.021073333,13.21315,0.583333333,0,0.583333333,0.25,0,0.0,0.0,0.583333333,0.0,0.0,0.0,0.0,1,0,1,0.0,1,0.0,272,1.0
272,18.57891667,41.78665,1.0,0,1.0,1.0,0,0.0,0.0,1.0,0.0,0.0,0.0,0.0,1,0,1,0.0,1,0.0,273,1.0
273,32.12935,38.91818,0.833333333,0,0.833333333,1.0,0,0.0,0.0,0.833333333,0.0,0.0,0.0,0.0,1,0,1,0.0,1,0.0,274,1.0
274,8.259736667,15.62951,1.0,0,1.0,1.0,0,0.0,0.0,1.0,0.0,0.0,0.0,0.0,1,0,1,0.0,1,0.0,275,1.0
275,20.48740333,30.253840000000004,0.0,3,0.0,0.0,0,0.0,0.0,0.0,0.0,0.0,0.0,0.0,1,0,1,0.0,1,0.0,276,1.0
276,15.12465,21.811,0.91,0,0.0,0.75,0,0.0,0.0,0.0,0.0,0.91,0.0,0.0,0,0,0,0.0,0,0.0,277,1.0
277,15.793035,13.66098,0.9165,0,0.9165,1.0,0,0.0,0.0,0.0,0.9165,0.0,0.0,0.0,0,0,0,0.0,1,0.0,278,0.0
278,8.660376667000001,15.05339,1.0,0,1.0,1.0,0,0.0,0.0,1.0,0.0,0.0,0.0,0.0,1,0,1,0.0,1,0.0,279,1.0
279,4.925026667,5.7699,1.0,0,1.0,1.0,0,0.0,1.0,1.0,0.0,0.0,0.0,0.0,1,0,1,0.0,1,0.0,280,1.0
280,12.72625667,31.29304,1.0,0,1.0,1.0,0,0.0,0.0,1.0,0.0,0.0,0.0,0.0,1,0,1,0.0,1,0.0,281,1.0
281,4.810496667,7.4687800000000015,1.0,0,1.0,1.0,0,0.0,0.0,1.0,0.0,0.0,0.0,0.0,1,0,1,0.0,1,0.0,282,1.0
282,25.54779,22.58276,0.8885,0,0.8885,0.944,0,0.0,0.0,0.0,0.8885,0.0,0.0,0.0,0,0,0,0.0,1,0.0,283,1.0
283,29.86834333,32.43542,0.833333333,0,0.833333333,0.5,0,0.0,1.0,0.833333333,0.0,0.0,0.0,0.0,1,0,1,0.0,1,0.0,284,1.0
284,42.95202000000001,13.74364,0.361,1,0.0,0.0,0,0.0,0.0,0.0,0.0,0.361,0.361,0.0,0,0,0,0.0,0,0.0,285,1.0
285,11.598245,20.28139,0.5,1,0.5,1.0,0,0.0,0.0,0.0,0.5,0.0,0.0,0.0,0,0,0,0.0,1,0.0,286,1.0
286,27.904575,28.40476,1.0,0,1.0,1.0,0,0.0,0.0,0.0,1.0,0.0,0.0,0.0,0,0,0,0.0,1,0.0,287,1.0
287,3.25592,3.10829,1.0,0,1.0,1.0,0,0.0,0.0,1.0,0.0,0.0,0.0,0.0,1,0,1,0.0,1,0.0,288,1.0
288,3.855583333,4.92847,1.0,0,1.0,1.0,0,0.0,0.0,1.0,0.0,0.0,0.0,0.0,1,0,1,0.0,1,0.0,289,1.0
289,3.247053333,4.3251800000000005,1.0,0,1.0,1.0,0,0.0,0.0,1.0,0.0,0.0,0.0,0.0,1,0,1,0.0,1,0.0,290,1.0
290,9.26974,9.26974,0.5,0,0.5,0.5,0,0.0,0.0,0.5,0.0,0.0,0.0,0.0,1,0,1,0.0,1,0.0,291,0.0
291,4.377176667,6.2601900000000015,1.0,0,1.0,1.0,0,0.0,1.0,1.0,0.0,0.0,0.0,0.0,1,0,1,0.0,1,0.0,292,0.0
292,14.366575,22.81002,0.472,1,0.472,0.944,0,0.0,0.0,0.0,0.472,0.0,0.0,0.0,0,0,0,0.0,1,0.0,293,1.0
293,17.28489667,10.57458,1.0,0,1.0,1.0,0,0.0,0.0,1.0,0.0,0.0,0.0,0.0,1,0,1,0.0,1,0.0,294,1.0
294,7.999773332999999,15.00779,1.0,0,1.0,1.0,0,0.0,0.0,1.0,0.0,0.0,0.0,0.0,1,0,1,0.0,1,0.0,295,1.0
295,7.7799,7.7799,1.0,0,1.0,1.0,0,0.0,0.0,1.0,0.0,0.0,0.0,0.0,1,0,1,0.0,1,0.0,296,0.0
296,11.66964667,26.08647,1.0,0,1.0,1.0,0,0.0,0.0,1.0,0.0,0.0,0.0,0.0,1,0,1,0.0,1,0.0,297,1.0
297,5.720593332999999,7.371119999999999,1.0,0,1.0,1.0,0,0.0,0.0,1.0,0.0,0.0,0.0,0.0,1,0,1,0.0,1,0.0,298,1.0
298,21.64364,32.77308,1.0,0,1.0,1.0,0,0.0,0.0,1.0,0.0,0.0,0.0,0.0,1,0,1,0.0,1,0.0,299,1.0
299,54.984115,62.64836999999999,0.833,0,0.0,0.833,0,0.0,0.0,0.0,0.0,0.833,0.833,0.0,0,0,0,0.0,0,0.0,300,1.0
300,22.931875,29.35536,0.972,0,0.972,1.0,0,0.0,0.0,0.0,0.972,0.0,0.0,0.0,0,0,0,0.0,1,0.0,301,1.0
301,8.031686667,6.64,1.0,0,1.0,1.0,0,0.0,0.0,1.0,0.0,0.0,0.0,0.0,1,0,1,0.0,1,0.0,302,1.0
302,3.370053333,2.40798,1.0,0,1.0,1.0,0,0.0,0.0,1.0,0.0,0.0,0.0,0.0,1,0,1,0.0,1,0.0,303,1.0
303,10.52348333,22.88442,1.0,0,1.0,1.0,0,0.0,0.0,1.0,0.0,0.0,0.0,0.0,1,0,1,0.0,1,0.0,304,1.0
304,35.99951,46.57409000000001,0.861,0,0.861,0.722,0,0.0,0.0,0.0,0.861,0.0,0.0,0.0,0,0,0,0.0,1,0.0,305,1.0
305,31.830065,31.58949,1.0,0,1.0,1.0,0,0.0,0.0,1.0,0.0,0.0,0.0,0.0,1,0,1,0.0,1,0.0,306,0.0
306,7.8498199999999985,16.21206,1.0,0,1.0,1.0,0,0.0,0.0,1.0,0.0,0.0,0.0,0.0,1,0,1,0.0,1,0.0,307,1.0
307,8.35179,8.35179,0.0,1,0.0,0.0,0,0.0,0.0,0.0,0.0,0.0,0.0,0.0,0,0,0,0.0,1,0.0,308,0.0
308,15.15447833,15.82387,0.791666667,0,0.791666667,1.0,0,0.0,0.0,0.0,0.0,0.0,0.0,0.0,1,0,0,0.0,1,0.0,309,0.0
309,3.754936667,5.01079,1.0,0,1.0,1.0,0,0.0,0.0,1.0,0.0,0.0,0.0,0.0,1,0,1,0.0,1,0.0,310,1.0
310,5.65899,5.07557,1.0,0,1.0,1.0,0,0.0,0.0,1.0,0.0,0.0,0.0,0.0,1,0,1,0.0,1,0.0,311,1.0
311,8.092703333,5.30969,1.0,0,1.0,1.0,0,0.0,0.0,1.0,0.0,0.0,0.0,0.0,1,0,1,0.0,1,0.0,312,1.0
312,5.726193332999999,9.1774,1.0,0,1.0,1.0,0,0.0,0.0,1.0,0.0,0.0,0.0,0.0,1,0,1,0.0,1,0.0,313,1.0
313,19.228965,19.08178,0.972,0,0.972,0.944,0,0.0,0.0,0.0,0.972,0.0,0.0,0.0,0,0,0,0.0,1,0.0,314,1.0
314,9.80631,13.99727,0.0,2,0.0,0.0,0,0.0,0.0,0.0,0.0,0.0,0.0,0.0,0,0,0,0.0,1,0.0,315,1.0
315,22.322121,13.82785,1.0,0,1.0,1.0,0,0.0,0.0,0.0,0.0,0.0,0.0,0.0,0,0,0,0.0,1,0.0,316,1.0
316,4.282166667,6.56434,1.0,0,1.0,1.0,0,0.0,0.0,1.0,0.0,0.0,0.0,0.0,1,0,1,0.0,1,0.0,317,1.0
317,7.278306667000001,12.67521,1.0,0,1.0,1.0,0,0.0,0.0,1.0,0.0,0.0,0.0,0.0,1,0,1,0.0,1,0.0,318,1.0
318,24.83043333,52.65186,1.0,0,1.0,1.0,0,0.0,0.0,1.0,0.0,0.0,0.0,0.0,1,0,1,0.0,1,0.0,319,1.0
319,11.267706,39.35488,0.7,0,0.7,0.0,0,0.0,1.0,0.0,0.0,0.0,0.0,0.0,1,0,0,0.0,1,0.0,320,1.0
320,9.493466667,21.36876,1.0,0,1.0,1.0,0,0.0,1.0,1.0,0.0,0.0,0.0,0.0,1,0,1,0.0,1,0.0,321,1.0
321,2.72045,2.98421,1.0,0,1.0,1.0,0,0.0,0.0,0.0,0.0,0.0,0.0,0.0,1,0,0,0.0,1,0.0,322,1.0
322,2.99468,3.81213,1.0,0,1.0,1.0,0,0.0,1.0,1.0,0.0,0.0,0.0,0.0,1,0,1,0.0,1,0.0,323,1.0
323,7.324773332999999,9.80221,1.0,0,1.0,1.0,0,0.0,0.0,1.0,0.0,0.0,0.0,0.0,1,0,1,0.0,1,0.0,324,1.0
324,8.12555,6.16765,1.0,0,1.0,1.0,0,0.0,0.0,1.0,0.0,0.0,0.0,0.0,1,0,1,0.0,1,0.0,325,1.0
325,2.733656667,3.3388400000000003,1.0,0,1.0,1.0,0,0.0,0.0,1.0,0.0,0.0,0.0,0.0,1,0,1,0.0,1,0.0,326,1.0
326,21.48489,17.56469,0.9165,0,0.9165,1.0,0,0.0,0.0,0.0,0.9165,0.0,0.0,0.0,0,0,0,0.0,1,0.0,327,1.0
327,12.03932333,20.7176,1.0,0,1.0,1.0,0,0.0,0.0,0.0,0.0,0.0,0.0,0.0,1,0,0,0.0,1,0.0,328,1.0
328,32.872205,36.36927,0.8885,0,0.8885,0.833,0,0.0,0.0,0.0,0.8885,0.0,0.0,0.0,0,0,0,0.0,1,0.0,329,1.0
329,8.270276667000001,10.93028,1.0,0,1.0,1.0,0,0.0,0.0,1.0,0.0,0.0,0.0,0.0,1,0,1,0.0,1,0.0,330,1.0
330,81.89043000000002,202.73037,0.5,0,0.5,0.25,0,0.0,0.0,0.5,0.0,0.0,0.0,0.0,1,0,1,0.0,1,0.0,331,1.0
331,8.188353333,7.12533,1.0,0,1.0,1.0,0,0.0,0.0,1.0,0.0,0.0,0.0,0.0,1,0,1,0.0,1,0.0,332,1.0
332,2.87586,2.04081,1.0,0,1.0,1.0,0,0.0,0.0,1.0,0.0,0.0,0.0,0.0,1,0,1,0.0,1,0.0,333,1.0
333,6.015766667,6.49547,1.0,0,1.0,1.0,0,0.0,0.0,1.0,0.0,0.0,0.0,0.0,1,0,1,0.0,1,0.0,334,1.0
334,20.559316,9.58462,0.0,2,0.0,0.0,0,0.0,0.0,0.0,0.0,0.0,0.0,0.0,1,0,0,0.0,1,0.0,335,0.0
335,23.99438667,27.43008,1.0,0,1.0,1.0,0,0.0,0.0,1.0,0.0,0.0,0.0,0.0,1,0,1,0.0,1,0.0,336,1.0
336,10.69688333,16.60215,0.916666667,0,0.0,1.0,0,0.0,0.0,0.0,0.0,0.916666667,0.0,0.0,1,0,0,0.0,0,0.0,337,
337,16.35131,16.78022,1.0,0,1.0,1.0,0,0.0,1.0,1.0,0.0,0.0,0.0,0.0,1,0,1,0.0,1,0.0,338,1.0
338,8.697560000000001,15.14685,1.0,0,1.0,1.0,0,0.0,0.0,1.0,0.0,0.0,0.0,0.0,1,0,1,0.0,1,0.0,339,1.0
339,6.400516667000001,9.83638,1.0,0,1.0,1.0,0,0.0,0.0,1.0,0.0,0.0,0.0,0.0,1,0,1,0.0,1,0.0,340,1.0
340,7.573963332999999,11.57355,1.0,0,1.0,1.0,0,0.0,0.0,1.0,0.0,0.0,0.0,0.0,1,0,1,0.0,1,0.0,341,1.0
341,3.037906667,3.93626,1.0,0,1.0,1.0,0,0.0,0.0,1.0,0.0,0.0,0.0,0.0,1,0,1,0.0,1,0.0,342,1.0
342,20.36264333,24.69327,1.0,0,1.0,1.0,0,0.0,1.0,1.0,0.0,0.0,0.0,0.0,1,0,1,0.0,1,0.0,343,1.0
343,11.62243667,19.36622,1.0,0,1.0,1.0,0,0.0,0.0,1.0,0.0,0.0,0.0,0.0,1,0,1,0.0,1,0.0,344,1.0
344,6.11049,9.28826,1.0,0,1.0,1.0,0,0.0,1.0,1.0,0.0,0.0,0.0,0.0,1,0,1,0.0,1,0.0,345,1.0
345,10.774945,14.62107,1.0,0,1.0,1.0,0,0.0,0.0,0.0,0.0,0.0,0.0,0.0,0,0,0,0.0,1,0.0,346,1.0
346,6.923016667000001,2.83122,1.0,0,1.0,1.0,0,0.0,0.0,1.0,0.0,0.0,0.0,0.0,1,0,1,0.0,1,0.0,347,1.0
347,4.545986667,6.9488,1.0,0,1.0,1.0,0,0.0,1.0,0.0,0.0,0.0,0.0,0.0,1,0,0,0.0,1,0.0,348,1.0
348,24.37496333,7.746180000000002,0.5,1,0.5,0.0,0,0.0,0.0,0.5,0.0,0.0,0.0,0.0,1,0,1,0.0,1,0.0,349,1.0
349,29.9527,27.26131,0.8055,0,0.0,0.889,0,0.0,0.0,0.0,0.0,0.8055,0.8055,0.0,0,0,0,0.0,0,0.0,350,1.0
350,10.93425333,17.24202,1.0,0,1.0,1.0,0,0.0,1.0,1.0,0.0,0.0,0.0,0.0,1,0,1,0.0,1,0.0,351,1.0
351,13.53083333,6.99844,1.0,0,1.0,1.0,0,0.0,1.0,1.0,0.0,0.0,0.0,0.0,1,0,1,0.0,1,0.0,352,1.0
352,4.558903333,4.80738,1.0,0,1.0,1.0,0,0.0,0.0,1.0,0.0,0.0,0.0,0.0,1,0,1,0.0,1,0.0,353,1.0
353,2.646326667,3.19612,1.0,0,1.0,1.0,0,0.0,0.0,1.0,0.0,0.0,0.0,0.0,1,0,1,0.0,1,0.0,354,1.0
354,58.52710500000001,73.60007,0.7225,0,0.0,0.667,0,0.0,0.0,0.0,0.0,0.7225,0.7225,0.0,0,0,0,0.0,0,0.0,355,1.0
355,3.513253333,3.96901,1.0,0,1.0,1.0,0,0.0,0.0,1.0,0.0,0.0,0.0,0.0,1,0,1,0.0,1,0.0,356,1.0
356,5.344156667,8.53336,1.0,0,1.0,1.0,0,0.0,0.0,1.0,0.0,0.0,0.0,0.0,1,0,1,0.0,1,0.0,357,1.0
357,6.766923332999999,8.581430000000001,1.0,0,1.0,1.0,0,0.0,0.0,1.0,0.0,0.0,0.0,0.0,1,0,1,0.0,1,0.0,358,1.0
358,5.874926667,8.26494,0.833333333,0,0.833333333,1.0,0,0.0,0.0,0.833333333,0.0,0.0,0.0,0.0,1,0,1,0.0,1,0.0,359,1.0
359,22.12481,40.67047,0.472,1,0.0,0.944,0,0.0,0.0,0.0,0.0,0.472,0.472,0.0,0,0,0,0.0,0,0.0,360,1.0
360,8.227183333,12.05704,0.666666667,1,0.666666667,0.0,0,0.0,0.0,0.666666667,0.0,0.0,0.0,0.0,1,0,1,0.0,1,0.0,361,1.0
361,44.581924,49.68326,0.8,0,0.8,1.0,0,0.0,0.0,0.0,0.0,0.0,0.0,0.0,0,0,0,0.0,1,0.0,362,1.0
362,9.064185,15.31536,0.5,1,0.5,1.0,0,0.0,0.0,0.5,0.0,0.0,0.0,0.0,1,0,1,0.0,1,0.0,363,1.0
363,33.99064,37.87231,0.8885,0,0.8885,0.944,0,0.0,0.0,0.0,0.8885,0.0,0.0,0.0,0,0,0,0.0,1,0.0,364,1.0
364,199.638345,75.35591,0.0,2,0.0,0.0,0,0.0,0.0,0.0,0.0,0.0,0.0,0.0,0,0,0,0.0,1,0.0,365,1.0
365,3.868743333,5.42536,1.0,0,1.0,1.0,0,0.0,0.0,1.0,0.0,0.0,0.0,0.0,1,0,1,0.0,1,0.0,366,1.0
366,21.683875,41.76596,0.361,1,0.0,0.722,0,0.0,0.0,0.0,0.0,0.361,0.361,0.0,0,0,0,0.0,0,0.0,367,1.0
367,9.20187,19.00478,1.0,0,1.0,1.0,0,0.0,0.0,1.0,0.0,0.0,0.0,0.0,1,0,1,0.0,1,0.0,368,1.0
368,9.7088,18.71024,1.0,0,1.0,1.0,0,0.0,0.0,1.0,0.0,0.0,0.0,0.0,1,0,1,0.0,1,0.0,369,1.0
369,4.2508599999999985,4.94289,1.0,0,1.0,1.0,0,0.0,0.0,1.0,0.0,0.0,0.0,0.0,1,0,1,0.0,1,0.0,370,1.0
370,4.392366667,6.08849,1.0,0,1.0,1.0,0,0.0,0.0,1.0,0.0,0.0,0.0,0.0,1,0,1,0.0,1,0.0,371,1.0
371,37.95592,32.48037,0.972,0,0.0,1.0,0,0.0,0.0,0.0,0.0,0.972,0.972,0.0,0,0,0,0.0,0,0.0,372,1.0
372,22.981275,22.21083,0.972,0,0.972,1.0,0,0.0,0.0,0.0,0.972,0.0,0.0,0.0,0,0,0,0.0,1,0.0,373,1.0
373,33.21311,12.48586,0.0,3,0.0,0.0,0,0.0,0.0,0.0,0.0,0.0,0.0,0.0,1,0,1,0.0,1,0.0,374,1.0
374,121.2478,137.86843000000002,0.3885,0,0.0,0.444,0,0.0,0.0,0.0,0.0,0.3885,0.3885,0.0,0,0,0,0.0,0,0.0,375,1.0
375,30.862725,29.94194,0.9165,0,0.0,0.889,0,0.0,0.0,0.0,0.0,0.9165,0.9165,0.0,0,0,0,0.0,0,0.0,376,1.0
376,31.67487,32.73793,0.944,0,0.0,0.944,0,0.0,1.0,0.0,0.0,0.944,0.944,0.0,0,0,0,0.0,0,0.0,377,1.0
377,3.354653333,4.92275,1.0,0,1.0,1.0,0,0.0,0.0,1.0,0.0,0.0,0.0,0.0,1,0,1,0.0,1,0.0,378,1.0
378,61.34645,77.22564,0.9165,0,0.0,0.889,0,0.0,0.0,0.0,0.0,0.9165,0.9165,0.0,0,0,0,0.0,0,0.0,379,1.0
379,41.26559,43.02531,0.9445,0,0.0,0.889,0,0.0,0.0,0.0,0.0,0.9445,0.9445,0.0,0,0,0,0.0,0,0.0,380,1.0
380,25.23491,21.84822,0.972,0,0.972,1.0,0,0.0,0.0,0.0,0.972,0.0,0.0,0.0,0,0,0,0.0,1,0.0,381,1.0
381,2.3835233330000003,2.32682,1.0,0,1.0,1.0,0,0.0,0.0,1.0,0.0,0.0,0.0,0.0,1,0,1,0.0,1,0.0,382,1.0
382,28.47849667,20.61612,1.0,0,1.0,1.0,0,0.0,0.0,0.0,0.0,0.0,0.0,0.0,1,0,0,0.0,1,0.0,383,1.0
383,59.33266,34.101240000000004,0.75,0,0.75,1.0,0,0.0,0.0,0.0,0.75,0.0,0.0,0.0,0,0,0,0.0,1,0.0,384,1.0
384,9.205663333,21.01574,1.0,0,1.0,1.0,0,0.0,0.0,1.0,0.0,0.0,0.0,0.0,1,0,1,0.0,1,0.0,385,1.0
385,9.25156,17.762320000000006,1.0,0,1.0,1.0,0,0.0,0.0,1.0,0.0,0.0,0.0,0.0,1,0,1,0.0,1,0.0,386,1.0
386,4.894736667,6.1993,1.0,0,1.0,1.0,0,0.0,0.0,1.0,0.0,0.0,0.0,0.0,1,0,1,0.0,1,0.0,387,1.0
387,30.2921,33.78087,0.9445,0,0.0,0.889,0,0.0,0.0,0.0,0.0,0.9445,0.9445,0.0,0,0,0,0.0,0,0.0,388,1.0
388,46.32155667,115.15553,0.75,0,0.75,0.25,0,0.0,0.0,0.75,0.0,0.0,0.0,0.0,1,0,1,0.0,1,0.0,389,1.0
389,104.271785,96.22579,0.6665,0,0.0,0.722,0,0.0,0.0,0.0,0.0,0.6665,0.6665,0.0,0,0,0,0.0,0,0.0,390,1.0
390,7.953010000000001,7.904960000000001,1.0,0,1.0,1.0,0,0.0,0.0,1.0,0.0,0.0,0.0,0.0,1,0,1,0.0,1,0.0,391,0.0
391,41.475325,39.57463,0.8885,0,0.0,0.944,0,0.0,0.0,0.0,0.0,0.8885,0.8885,0.0,0,0,0,0.0,0,0.0,392,1.0
392,3.0818,4.63159,0.666666667,1,0.666666667,1.0,0,0.0,0.0,0.666666667,0.0,0.0,0.0,0.0,1,0,1,0.0,1,0.0,393,1.0
393,16.6694,28.760040000000004,1.0,0,1.0,1.0,0,0.0,0.0,1.0,0.0,0.0,0.0,0.0,1,0,1,0.0,1,0.0,394,1.0
394,48.31162333,36.5203,1.0,0,1.0,1.0,0,0.0,0.0,1.0,0.0,0.0,0.0,0.0,1,0,1,0.0,1,0.0,395,1.0
395,11.11600667,18.49273,1.0,0,1.0,1.0,0,0.0,0.0,1.0,0.0,0.0,0.0,0.0,1,0,1,0.0,1,0.0,396,1.0
396,30.74993,57.13385,0.666666667,1,0.666666667,1.0,0,0.0,0.0,0.666666667,0.0,0.0,0.0,0.0,1,0,1,0.0,1,0.0,397,1.0
397,46.100195,49.28359,0.9445,0,0.0,1.0,0,0.0,0.0,0.0,0.0,0.9445,0.9445,0.0,0,0,0,0.0,0,0.0,398,1.0
398,8.403453333,16.25905,1.0,0,1.0,1.0,0,0.0,0.0,1.0,0.0,0.0,0.0,0.0,1,0,1,0.0,1,0.0,399,1.0
399,7.985206667000001,6.41592,1.0,0,1.0,1.0,0,0.0,0.0,1.0,0.0,0.0,0.0,0.0,1,0,1,0.0,1,0.0,400,1.0
400,5.696813333,9.2637,1.0,0,1.0,1.0,0,0.0,0.0,1.0,0.0,0.0,0.0,0.0,1,0,1,0.0,1,0.0,401,1.0
401,3.44286,5.03316,1.0,0,1.0,1.0,0,0.0,0.0,1.0,0.0,0.0,0.0,0.0,1,0,1,0.0,1,0.0,402,1.0
402,8.351333333,14.59682,0.666666667,1,0.666666667,1.0,0,0.0,0.0,0.666666667,0.0,0.0,0.0,0.0,1,0,1,0.0,1,0.0,403,1.0
403,9.445266667,6.1158800000000015,0.666666667,1,0.666666667,0.0,0,0.0,0.0,0.666666667,0.0,0.0,0.0,0.0,1,0,1,0.0,1,0.0,404,1.0
404,26.813415000000006,28.41788,1.0,0,1.0,1.0,0,0.0,0.0,0.0,1.0,0.0,0.0,0.0,0,0,0,0.0,1,0.0,405,1.0
405,12.8481,46.45711,0.7,0,0.7,0.0,0,0.0,0.0,0.0,0.0,0.0,0.0,0.0,1,0,0,0.0,1,0.0,406,1.0
406,5.016403333,5.14733,1.0,0,1.0,1.0,0,0.0,1.0,1.0,0.0,0.0,0.0,0.0,1,0,1,0.0,1,0.0,407,1.0
407,26.696615,26.24874,1.0,0,1.0,1.0,0,0.0,0.0,0.0,1.0,0.0,0.0,0.0,0,0,0,0.0,1,0.0,408,1.0
408,5.524953332999999,7.659210000000002,1.0,0,1.0,1.0,0,0.0,0.0,1.0,0.0,0.0,0.0,0.0,1,0,1,0.0,1,0.0,409,1.0
409,36.57877,13.709079999999998,0.361,1,0.0,0.0,0,0.0,0.0,0.0,0.0,0.361,0.361,0.0,0,0,0,0.0,0,0.0,410,1.0
410,5.328613333,8.943769999999997,1.0,0,1.0,1.0,0,0.0,0.0,1.0,0.0,0.0,0.0,0.0,1,0,1,0.0,1,0.0,411,1.0
411,6.256546667,13.00489,1.0,0,1.0,1.0,0,0.0,0.0,0.0,0.0,0.0,0.0,0.0,1,0,0,0.0,1,0.0,412,1.0
412,17.9829,15.030879999999998,0.75,0,0.75,1.0,0,0.0,0.0,0.75,0.0,0.0,0.0,0.0,1,0,1,0.0,1,0.0,413,1.0
413,13.4135,9.3185,0.5,1,0.5,0.5,0,0.0,0.0,0.5,0.0,0.0,0.0,0.0,1,0,1,0.0,1,0.0,414,1.0
414,11.79071667,20.05508,1.0,0,1.0,1.0,0,0.0,0.0,1.0,0.0,0.0,0.0,0.0,1,0,1,0.0,1,0.0,415,1.0
415,3.90834,4.52884,1.0,0,1.0,1.0,0,0.0,0.0,1.0,0.0,0.0,0.0,0.0,1,0,1,0.0,1,0.0,416,1.0
416,4.38224,8.512080000000001,0.666666667,0,0.666666667,1.0,0,0.0,0.0,0.0,0.0,0.0,0.0,0.0,1,0,0,0.0,1,0.0,417,1.0
417,5.801723332999999,11.55626,1.0,0,1.0,1.0,0,0.0,0.0,1.0,0.0,0.0,0.0,0.0,1,0,1,0.0,1,0.0,418,1.0
418,6.369933333,10.54545,1.0,0,1.0,1.0,0,0.0,1.0,1.0,0.0,0.0,0.0,0.0,1,0,1,0.0,1,0.0,419,1.0
419,17.48135333,17.10737,1.0,0,1.0,1.0,0,0.0,0.0,1.0,0.0,0.0,0.0,0.0,1,0,1,0.0,1,0.0,420,1.0
420,26.322865000000004,29.47756,1.0,0,1.0,1.0,0,0.0,0.0,0.0,1.0,0.0,0.0,0.0,0,0,0,0.0,1,0.0,421,1.0
421,9.27679,13.07102,1.0,0,1.0,1.0,0,0.0,1.0,1.0,0.0,0.0,0.0,0.0,1,0,1,0.0,1,0.0,422,1.0
422,28.79249,21.18683,0.4445,1,0.0,0.0,0,0.0,0.0,0.0,0.0,0.4445,0.4445,0.0,0,0,0,0.0,0,0.0,423,1.0
423,29.228435,35.67745,0.944,0,0.944,0.944,0,0.0,1.0,0.0,0.944,0.0,0.0,0.0,0,0,0,0.0,1,0.0,424,1.0
424,3.685306667,5.65117,1.0,0,1.0,1.0,0,0.0,0.0,1.0,0.0,0.0,0.0,0.0,1,0,1,0.0,1,0.0,425,1.0
425,4.06268,5.67673,1.0,0,1.0,1.0,0,0.0,0.0,1.0,0.0,0.0,0.0,0.0,1,0,1,0.0,1,0.0,426,1.0
426,32.098915000000005,29.97261,0.8885,0,0.8885,0.944,0,0.0,0.0,0.0,0.8885,0.0,0.0,0.0,0,0,0,0.0,1,0.0,427,1.0
427,37.385615,11.58685,0.5,1,0.0,0.0,0,0.0,0.0,0.0,0.0,0.5,0.5,0.0,0,0,0,0.0,0,0.0,428,1.0
428,5.189733333,10.22844,1.0,0,1.0,1.0,0,0.0,0.0,1.0,0.0,0.0,0.0,0.0,1,0,1,0.0,1,0.0,429,1.0
429,36.29649000000001,34.837920000000004,0.9165,0,0.9165,1.0,0,0.0,0.0,0.0,0.9165,0.0,0.0,0.0,0,0,0,0.0,1,0.0,430,1.0
430,56.08773000000001,59.19053,0.9165,0,0.0,1.0,0,0.0,0.0,0.0,0.0,0.9165,0.9165,0.0,0,0,0,0.0,0,0.0,431,1.0
431,3.459183333,4.31675,1.0,0,1.0,1.0,0,0.0,0.0,1.0,0.0,0.0,0.0,0.0,1,0,1,0.0,1,0.0,432,1.0
432,8.97007,11.47129,0.4166666670000001,1,0.4166666670000001,1.0,0,0.0,0.0,0.4166666670000001,0.0,0.0,0.0,0.0,1,0,1,0.0,1,0.0,433,1.0
433,5.185103333,10.0175,0.333333333,0,0.333333333,0.0,0,0.0,0.0,0.0,0.0,0.0,0.0,0.0,1,0,0,0.0,1,0.0,434,1.0
434,4.28376,5.70929,1.0,0,1.0,1.0,0,0.0,0.0,1.0,0.0,0.0,0.0,0.0,1,0,1,0.0,1,0.0,435,1.0
435,4.040023333,6.64393,1.0,0,1.0,1.0,0,0.0,0.0,1.0,0.0,0.0,0.0,0.0,1,0,1,0.0,1,0.0,436,1.0
436,5.96609,11.4386,1.0,0,1.0,1.0,0,0.0,0.0,1.0,0.0,0.0,0.0,0.0,1,0,1,0.0,1,0.0,437,1.0
437,35.58793,33.257220000000004,0.7775,0,0.7775,0.833,0,0.0,0.0,0.0,0.7775,0.0,0.0,0.0,0,0,0,0.0,1,0.0,438,1.0
438,17.358037,52.97176999999999,0.3,7,0.0,1.0,0,0.0,0.0,0.0,0.0,0.0,0.0,0.3,0,0,0,0.3,0,0.0,439,1.0
439,11.83496667,11.34374,1.0,0,1.0,1.0,0,0.0,0.0,1.0,0.0,0.0,0.0,0.0,1,0,1,0.0,1,0.0,440,1.0
440,57.53005,56.85061999999999,0.944,0,0.0,0.944,0,0.0,0.0,0.0,0.0,0.944,0.944,0.0,0,0,0,0.0,0,0.0,441,1.0
441,38.89171,45.47082,0.9165,0,0.0,0.833,0,0.0,0.0,0.0,0.0,0.9165,0.9165,0.0,0,0,0,0.0,0,0.0,442,1.0
442,6.161536667000001,7.14695,0.75,0,0.75,1.0,0,0.0,1.0,0.75,0.0,0.0,0.0,0.0,1,0,1,0.0,1,0.0,443,1.0
443,6.198143332999999,11.4078,1.0,0,1.0,1.0,0,0.0,0.0,1.0,0.0,0.0,0.0,0.0,1,0,1,0.0,1,0.0,444,1.0
444,5.058616667,7.03004,1.0,0,1.0,1.0,0,0.0,1.0,1.0,0.0,0.0,0.0,0.0,1,0,1,0.0,1,0.0,445,1.0
445,4.744796667,4.27915,0.833333333,0,0.833333333,1.0,0,0.0,0.0,0.833333333,0.0,0.0,0.0,0.0,1,0,1,0.0,1,0.0,446,1.0
446,19.7177,19.7177,1.0,0,1.0,1.0,0,0.0,0.0,0.0,1.0,0.0,0.0,0.0,0,0,0,0.0,1,0.0,447,1.0
447,28.591315,32.90803,0.8885,0,0.8885,0.833,0,0.0,0.0,0.0,0.8885,0.0,0.0,0.0,0,0,0,0.0,1,0.0,448,0.0
448,5.622583333,5.8677,1.0,0,1.0,1.0,0,0.0,0.0,1.0,0.0,0.0,0.0,0.0,1,0,1,0.0,1,0.0,449,1.0
449,22.11493,28.70382,0.972,0,0.972,0.944,0,0.0,0.0,0.0,0.972,0.0,0.0,0.0,0,0,0,0.0,1,0.0,450,1.0
450,46.004125,59.71416,0.9165,0,0.9165,0.833,0,0.0,1.0,0.0,0.9165,0.0,0.0,0.0,0,0,0,0.0,1,0.0,451,1.0
451,8.764475,10.05184,1.0,0,1.0,1.0,0,0.0,0.0,0.0,0.0,0.0,0.0,0.0,0,0,0,0.0,1,0.0,452,1.0
452,5.393026667000001,2.31481,1.0,0,1.0,1.0,0,0.0,0.0,0.0,0.0,0.0,0.0,0.0,1,0,0,0.0,1,0.0,453,1.0
453,21.16761333,38.64182,1.0,0,1.0,1.0,0,0.0,0.0,1.0,0.0,0.0,0.0,0.0,1,0,1,0.0,1,0.0,454,1.0
454,42.97900667,73.96924,1.0,0,1.0,1.0,0,0.0,0.0,1.0,0.0,0.0,0.0,0.0,1,0,1,0.0,1,0.0,455,1.0
455,6.663343332999999,12.27732,0.666666667,1,0.666666667,1.0,0,0.0,0.0,0.666666667,0.0,0.0,0.0,0.0,1,0,1,0.0,1,0.0,456,1.0
456,8.335316667,7.0535,1.0,0,1.0,1.0,0,0.0,0.0,1.0,0.0,0.0,0.0,0.0,1,0,1,0.0,1,0.0,457,1.0
457,6.762453333,11.55549,1.0,0,1.0,1.0,0,0.0,0.0,1.0,0.0,0.0,0.0,0.0,1,0,1,0.0,1,0.0,458,1.0
458,6.700733333,11.63627,1.0,0,1.0,1.0,0,0.0,0.0,1.0,0.0,0.0,0.0,0.0,1,0,1,0.0,1,0.0,459,1.0
459,48.47513667,16.87515,1.0,0,1.0,1.0,0,0.0,0.0,1.0,0.0,0.0,0.0,0.0,1,0,1,0.0,1,0.0,460,1.0
460,11.95628,11.95628,1.0,0,1.0,1.0,0,0.0,0.0,1.0,0.0,0.0,0.0,0.0,1,0,1,0.0,1,0.0,461,0.0
461,19.29517667,32.1211,1.0,0,1.0,1.0,0,0.0,0.0,1.0,0.0,0.0,0.0,0.0,1,0,1,0.0,1,0.0,462,1.0
462,19.383712,36.19477,0.4,0,0.4,0.0,0,0.0,0.0,0.0,0.0,0.0,0.0,0.0,1,0,0,0.0,1,0.0,463,1.0
463,12.51842,14.81391,0.666666667,0,0.666666667,1.0,0,0.0,0.0,0.0,0.0,0.0,0.0,0.0,1,0,0,0.0,1,0.0,464,1.0
464,9.85019,5.3672900000000014,1.0,0,1.0,1.0,0,0.0,1.0,0.0,0.0,0.0,0.0,0.0,0,0,0,0.0,1,0.0,465,1.0
465,5.25303,5.8036,0.0,2,0.0,0.0,0,0.0,0.0,0.0,0.0,0.0,0.0,0.0,0,0,0,0.0,1,0.0,466,1.0
466,26.582715000000004,50.34777,0.4165,1,0.0,0.833,0,0.0,0.0,0.0,0.0,0.4165,0.4165,0.0,0,0,0,0.0,0,0.0,467,1.0
467,12.37523333,8.21304,0.95,0,0.95,1.0,0,0.0,1.0,0.0,0.0,0.0,0.0,0.0,1,0,0,0.0,1,0.0,468,1.0
468,7.7160600000000015,12.40084,1.0,0,1.0,1.0,0,0.0,0.0,1.0,0.0,0.0,0.0,0.0,1,0,1,0.0,1,0.0,469,1.0
469,3.362496667,3.37215,1.0,0,1.0,1.0,0,0.0,0.0,1.0,0.0,0.0,0.0,0.0,1,0,1,0.0,1,0.0,470,1.0
470,25.794815,27.74306,0.944,0,0.944,0.944,0,0.0,0.0,0.0,0.944,0.0,0.0,0.0,0,0,0,0.0,1,0.0,471,1.0
471,29.620335,54.47319,0.0,2,0.0,0.0,0,0.0,0.0,0.0,0.0,0.0,0.0,0.0,0,0,0,0.0,1,0.0,472,1.0
472,29.63185,40.61045,1.0,0,1.0,1.0,0,0.0,1.0,1.0,0.0,0.0,0.0,0.0,1,0,1,0.0,1,0.0,473,1.0
473,3.450646667,4.36152,1.0,0,1.0,1.0,0,0.0,1.0,1.0,0.0,0.0,0.0,0.0,1,0,1,0.0,1,0.0,474,1.0
474,11.21519667,11.44435,1.0,0,1.0,1.0,0,0.0,0.0,1.0,0.0,0.0,0.0,0.0,1,0,1,0.0,1,0.0,475,1.0
475,6.122273333,5.32613,0.666666667,0,0.666666667,1.0,0,0.0,1.0,0.0,0.0,0.0,0.0,0.0,1,0,0,0.0,1,0.0,476,1.0
476,10.56824,19.35273,1.0,0,1.0,1.0,0,0.0,0.0,1.0,0.0,0.0,0.0,0.0,1,0,1,0.0,1,0.0,477,1.0
477,8.499626667000001,14.91861,1.0,0,1.0,1.0,0,0.0,0.0,1.0,0.0,0.0,0.0,0.0,1,0,1,0.0,1,0.0,478,1.0
478,3.13638,3.26514,1.0,0,1.0,1.0,0,0.0,0.0,1.0,0.0,0.0,0.0,0.0,1,0,1,0.0,1,0.0,479,1.0
479,17.330170000000006,37.76125,1.0,0,1.0,1.0,0,0.0,0.0,1.0,0.0,0.0,0.0,0.0,1,0,1,0.0,1,0.0,480,1.0
480,13.63009,6.860639999999999,1.0,0,1.0,1.0,0,0.0,0.0,1.0,0.0,0.0,0.0,0.0,1,0,1,0.0,1,0.0,481,1.0
481,5.4607199999999985,9.48209,1.0,0,1.0,1.0,0,0.0,0.0,1.0,0.0,0.0,0.0,0.0,1,0,1,0.0,1,0.0,482,1.0
482,3.318343333,1.68897,1.0,0,1.0,1.0,0,0.0,0.0,0.0,0.0,0.0,0.0,0.0,1,0,0,0.0,1,0.0,483,1.0
483,3.140543333,3.92453,1.0,0,1.0,1.0,0,0.0,0.0,1.0,0.0,0.0,0.0,0.0,1,0,1,0.0,1,0.0,484,1.0
484,3.483322667,4.8284,0.966666667,0,0.966666667,1.0,0,0.0,0.0,0.0,0.0,0.0,0.0,0.966666667,0,0,0,0.0,1,0.0,485,1.0
485,4.726803333,8.52003,1.0,0,1.0,1.0,0,0.0,0.0,1.0,0.0,0.0,0.0,0.0,1,0,1,0.0,1,0.0,486,1.0
486,4.72449,7.6158100000000015,1.0,0,1.0,1.0,0,0.0,0.0,1.0,0.0,0.0,0.0,0.0,1,0,1,0.0,1,0.0,487,1.0
487,4.025146667,5.34252,1.0,0,1.0,1.0,0,0.0,0.0,1.0,0.0,0.0,0.0,0.0,1,0,1,0.0,1,0.0,488,1.0
488,4.255106667,5.95525,1.0,0,1.0,1.0,0,0.0,0.0,1.0,0.0,0.0,0.0,0.0,1,0,1,0.0,1,0.0,489,1.0
489,33.804925,36.84375,0.944,0,0.0,0.944,0,0.0,0.0,0.0,0.0,0.944,0.944,0.0,0,0,0,0.0,0,0.0,490,1.0
490,7.024839999999998,6.05582,1.0,0,1.0,1.0,0,0.0,0.0,1.0,0.0,0.0,0.0,0.0,1,0,1,0.0,1,0.0,491,1.0
491,2.3534900000000003,2.3534900000000003,1.0,0,1.0,1.0,0,0.0,0.0,0.0,0.0,0.0,0.0,0.0,1,0,0,0.0,1,0.0,492,0.0
492,3.623816667,6.06393,1.0,0,1.0,1.0,0,0.0,1.0,0.0,0.0,0.0,0.0,0.0,1,0,0,0.0,1,0.0,493,1.0
493,17.68522,21.07796,1.0,0,1.0,1.0,0,0.0,0.0,1.0,0.0,0.0,0.0,0.0,1,0,1,0.0,1,0.0,494,1.0
494,14.95998333,21.5424,0.75,0,0.75,1.0,0,0.0,0.0,0.75,0.0,0.0,0.0,0.0,1,0,1,0.0,1,0.0,495,1.0
495,29.84111,29.84111,0.778,0,0.0,0.778,0,0.0,0.0,0.0,0.0,0.778,0.778,0.0,0,0,0,0.0,0,0.0,496,0.0
496,24.45377333,26.24452,1.0,0,1.0,1.0,0,0.0,0.0,1.0,0.0,0.0,0.0,0.0,1,0,1,0.0,1,0.0,497,1.0
497,8.380283333,8.21004,1.0,0,1.0,1.0,0,0.0,0.0,1.0,0.0,0.0,0.0,0.0,1,0,1,0.0,1,0.0,498,1.0
498,3.35142,3.35142,1.0,0,1.0,1.0,0,0.0,1.0,1.0,0.0,0.0,0.0,0.0,1,0,1,0.0,1,0.0,499,0.0
499,11.65917333,25.96138,0.833333333,0,0.833333333,0.5,0,0.0,0.0,0.833333333,0.0,0.0,0.0,0.0,1,0,1,0.0,1,0.0,500,1.0
500,4.628356667,2.7762,0.833333333,0,0.833333333,1.0,0,0.0,0.0,0.833333333,0.0,0.0,0.0,0.0,1,0,1,0.0,1,0.0,501,1.0
501,25.794675,27.41916,0.972,0,0.972,0.944,0,0.0,0.0,0.0,0.972,0.0,0.0,0.0,0,0,0,0.0,1,0.0,502,1.0
502,12.915155,15.29037,0.0,2,0.0,0.0,0,0.0,0.0,0.0,0.0,0.0,0.0,0.0,1,0,1,0.0,1,0.0,503,0.0
503,33.03561333,21.84347,1.0,0,1.0,1.0,0,0.0,0.0,1.0,0.0,0.0,0.0,0.0,1,0,1,0.0,1,0.0,504,1.0
504,8.970273333,10.37246,1.0,0,1.0,1.0,0,0.0,0.0,1.0,0.0,0.0,0.0,0.0,1,0,1,0.0,1,0.0,505,1.0
505,114.6593433,207.71589,0.75,0,0.75,1.0,0,0.0,0.0,0.75,0.0,0.0,0.0,0.0,1,0,1,0.0,1,0.0,506,1.0
506,3.567536667,2.70741,1.0,0,1.0,1.0,0,0.0,0.0,0.0,0.0,0.0,0.0,0.0,1,0,0,0.0,1,0.0,507,1.0
507,11.62247333,22.31883,1.0,0,1.0,1.0,0,0.0,0.0,1.0,0.0,0.0,0.0,0.0,1,0,1,0.0,1,0.0,508,1.0
508,35.17503333,16.235529999999994,0.75,0,0.75,1.0,0,0.0,0.0,0.75,0.0,0.0,0.0,0.0,1,0,1,0.0,1,0.0,509,1.0
509,11.20403,12.81665,0.0,2,0.0,0.0,0,0.0,0.0,0.0,0.0,0.0,0.0,0.0,1,0,1,0.0,1,0.0,510,1.0
510,7.794496667000001,18.60653,1.0,0,1.0,1.0,0,0.0,0.0,0.0,0.0,0.0,0.0,0.0,1,0,0,0.0,1,0.0,511,1.0
511,27.085205,17.5173,0.583,1,0.583,0.333,0,0.0,0.0,0.0,0.583,0.0,0.0,0.0,0,0,0,0.0,1,0.0,512,1.0
512,9.222565,7.34625,0.0,2,0.0,0.0,0,0.0,1.0,0.0,0.0,0.0,0.0,0.0,0,0,0,0.0,0,0.0,513,1.0
513,6.02317,7.99893,1.0,0,1.0,1.0,0,0.0,0.0,1.0,0.0,0.0,0.0,0.0,1,0,1,0.0,1,0.0,514,1.0
514,36.611615,47.83648,0.944,0,0.944,0.944,0,0.0,0.0,0.0,0.944,0.0,0.0,0.0,0,0,0,0.0,1,0.0,515,1.0
515,24.5487,9.12345,0.833333333,0,0.833333333,1.0,0,0.0,0.0,0.833333333,0.0,0.0,0.0,0.0,1,0,1,0.0,1,0.0,516,1.0
516,4.4409800000000015,7.089360000000001,1.0,0,1.0,1.0,0,0.0,0.0,1.0,0.0,0.0,0.0,0.0,1,0,1,0.0,1,0.0,517,1.0
517,7.676826667,6.62838,0.666666667,1,0.666666667,1.0,0,0.0,0.0,0.666666667,0.0,0.0,0.0,0.0,1,0,1,0.0,1,0.0,518,1.0
518,43.770105,52.08584000000001,0.833,0,0.833,0.944,0,0.0,0.0,0.0,0.833,0.0,0.0,0.0,0,0,0,0.0,1,0.0,519,1.0
519,27.1049,29.16299,1.0,0,1.0,1.0,0,0.0,0.0,0.0,1.0,0.0,0.0,0.0,0,0,0,0.0,1,0.0,520,1.0
520,4.548696667,5.9633699999999985,1.0,0,1.0,1.0,0,0.0,0.0,1.0,0.0,0.0,0.0,0.0,1,0,1,0.0,1,0.0,521,1.0
521,15.52390333,12.50549,0.75,0,0.75,1.0,0,0.0,0.0,0.75,0.0,0.0,0.0,0.0,1,0,1,0.0,1,0.0,522,1.0
522,81.276825,117.97132,0.3195,0,0.3195,0.25,0,0.0,0.0,0.0,0.3195,0.0,0.0,0.0,0,0,0,0.0,1,0.0,523,1.0
523,12.79517333,24.54398,1.0,0,1.0,1.0,0,0.0,0.0,1.0,0.0,0.0,0.0,0.0,1,0,1,0.0,1,0.0,524,1.0
524,4.6448733330000005,7.011260000000001,1.0,0,1.0,1.0,0,0.0,0.0,1.0,0.0,0.0,0.0,0.0,1,0,1,0.0,1,0.0,525,1.0
525,6.774123333,5.3349,1.0,0,1.0,1.0,0,0.0,0.0,1.0,0.0,0.0,0.0,0.0,1,0,1,0.0,1,0.0,526,1.0
526,14.28664,33.690459999999995,1.0,0,1.0,1.0,0,0.0,0.0,1.0,0.0,0.0,0.0,0.0,1,0,1,0.0,1,0.0,527,1.0
527,4.471523333,4.86269,1.0,0,1.0,1.0,0,0.0,0.0,0.0,0.0,0.0,0.0,0.0,1,0,0,0.0,1,0.0,528,1.0
528,5.27723,7.576519999999999,1.0,0,1.0,1.0,0,0.0,0.0,1.0,0.0,0.0,0.0,0.0,1,0,1,0.0,1,0.0,529,1.0
529,15.37010667,21.38622,1.0,0,1.0,1.0,0,0.0,0.0,1.0,0.0,0.0,0.0,0.0,1,0,1,0.0,1,0.0,530,1.0
530,3.962155,7.78446,0.9666,0,0.9666,1.0,0,0.0,0.0,0.0,0.0,0.0,0.0,0.9666,0,0,0,0.0,1,0.0,531,1.0
531,7.027683333,5.39161,1.0,0,1.0,1.0,0,0.0,0.0,1.0,0.0,0.0,0.0,0.0,1,0,1,0.0,1,0.0,532,1.0
532,15.28288333,27.33295,1.0,0,1.0,1.0,0,0.0,0.0,1.0,0.0,0.0,0.0,0.0,1,0,1,0.0,1,0.0,533,1.0
533,8.0037,16.40176,1.0,0,1.0,1.0,0,0.0,0.0,1.0,0.0,0.0,0.0,0.0,1,0,1,0.0,1,0.0,534,1.0
534,21.57984,21.9604,0.972,0,0.972,1.0,0,0.0,0.0,0.0,0.972,0.0,0.0,0.0,0,0,0,0.0,1,0.0,535,1.0
535,61.0272,61.95211,0.666666667,0,0.666666667,0.5,0,0.0,0.0,0.666666667,0.0,0.0,0.0,0.0,1,0,1,0.0,1,0.0,536,1.0
536,11.11932,13.86404,0.75,0,0.75,1.0,0,0.0,0.0,0.75,0.0,0.0,0.0,0.0,1,0,1,0.0,1,0.0,537,1.0
537,26.12249,21.68479,0.933333333,0,0.933333333,1.0,0,0.0,0.0,0.0,0.0,0.0,0.0,0.0,0,0,0,0.0,1,0.0,538,
538,24.09053,26.75835,0.0,2,0.0,0.0,0,0.0,0.0,0.0,0.0,0.0,0.0,0.0,0,0,0,0.0,0,0.0,539,1.0
539,44.4149,52.59734,0.9445,0,0.0,0.889,0,0.0,0.0,0.0,0.0,0.9445,0.9445,0.0,0,0,0,0.0,0,0.0,540,1.0
540,35.13294667,24.01095,0.833333333,0,0.833333333,1.0,0,0.0,1.0,0.833333333,0.0,0.0,0.0,0.0,1,0,1,0.0,1,0.0,541,1.0
541,19.34527667,44.29618,1.0,0,1.0,1.0,0,0.0,0.0,1.0,0.0,0.0,0.0,0.0,1,0,1,0.0,1,0.0,542,1.0
542,7.717781,7.5193,0.95,0,0.95,1.0,0,0.0,0.0,0.0,0.0,0.0,0.0,0.0,1,0,0,0.0,1,0.0,543,1.0
543,14.13208333,30.69958,1.0,0,1.0,1.0,0,0.0,0.0,1.0,0.0,0.0,0.0,0.0,1,0,1,0.0,1,0.0,544,1.0
544,6.727310000000001,12.72452,1.0,0,1.0,1.0,0,0.0,1.0,1.0,0.0,0.0,0.0,0.0,1,0,1,0.0,1,0.0,545,1.0
545,21.705725,23.93265,0.972,0,0.972,0.944,0,0.0,0.0,0.0,0.972,0.0,0.0,0.0,0,0,0,0.0,1,0.0,546,1.0
546,14.52750333,36.00745,0.833333333,0,0.833333333,0.5,0,0.0,0.0,0.833333333,0.0,0.0,0.0,0.0,1,0,1,0.0,1,0.0,547,1.0
547,5.7202466670000005,4.12411,1.0,0,1.0,1.0,0,0.0,0.0,1.0,0.0,0.0,0.0,0.0,1,0,1,0.0,1,0.0,548,1.0
548,24.435545,23.34008,1.0,0,1.0,1.0,0,0.0,0.0,0.0,1.0,0.0,0.0,0.0,0,0,0,0.0,1,0.0,549,1.0
549,24.75984667,22.1946,1.0,0,1.0,1.0,0,0.0,0.0,1.0,0.0,0.0,0.0,0.0,1,0,1,0.0,1,0.0,550,1.0
550,5.07929,5.3247800000000005,1.0,0,1.0,1.0,0,0.0,0.0,1.0,0.0,0.0,0.0,0.0,1,0,1,0.0,1,0.0,551,1.0
551,6.846756667,9.73736,1.0,0,1.0,1.0,0,0.0,0.0,1.0,0.0,0.0,0.0,0.0,1,0,1,0.0,1,0.0,552,1.0
552,14.68683,17.78738,1.0,0,1.0,1.0,0,0.0,0.0,1.0,0.0,0.0,0.0,0.0,1,0,1,0.0,1,0.0,553,1.0
553,34.89932,52.06313,0.333333333,0,0.333333333,0.25,0,0.0,0.0,0.333333333,0.0,0.0,0.0,0.0,1,0,1,0.0,1,0.0,554,1.0
554,78.004375,59.86987,0.6385,0,0.0,0.833,0,0.0,1.0,0.0,0.0,0.6385,0.6385,0.0,0,0,0,0.0,0,0.0,555,1.0
555,4.951526667,10.48906,0.666666667,1,0.666666667,1.0,0,0.0,0.0,0.666666667,0.0,0.0,0.0,0.0,1,0,1,0.0,1,0.0,556,1.0
556,3.44177,4.7869,1.0,0,1.0,1.0,0,0.0,0.0,1.0,0.0,0.0,0.0,0.0,1,0,1,0.0,1,0.0,557,1.0
557,11.53628667,14.72995,1.0,0,1.0,1.0,0,0.0,1.0,1.0,0.0,0.0,0.0,0.0,1,0,1,0.0,1,0.0,558,1.0
558,7.347115,10.12583,0.0,2,0.0,0.0,0,0.0,0.0,0.0,0.0,0.0,0.0,0.0,0,0,0,0.0,1,0.0,559,1.0
559,20.05367,2.94368,0.666666667,1,0.666666667,0.0,0,0.0,0.0,0.666666667,0.0,0.0,0.0,0.0,1,0,1,0.0,1,0.0,560,1.0
560,4.9928300000000005,5.5563,1.0,0,1.0,1.0,0,0.0,0.0,1.0,0.0,0.0,0.0,0.0,1,0,1,0.0,1,0.0,561,1.0
561,22.115405,23.26437,0.8885,0,0.8885,0.833,0,0.0,0.0,0.0,0.8885,0.0,0.0,0.0,0,0,0,0.0,1,0.0,562,1.0
562,13.454935,5.74075,1.0,0,1.0,1.0,0,0.0,0.0,0.0,0.0,0.0,0.0,1.0,0,0,0,0.0,1,0.0,563,
563,17.351210000000002,38.94524000000001,0.833333333,0,0.833333333,0.5,0,0.0,0.0,0.833333333,0.0,0.0,0.0,0.0,1,0,1,0.0,1,0.0,564,1.0
564,138.86396000000002,138.86396000000002,1.0,0,1.0,1.0,0,0.0,1.0,0.0,0.0,0.0,0.0,1.0,0,0,0,0.0,1,0.0,565,1.0
565,5.81711,11.56867,1.0,0,1.0,1.0,0,0.0,0.0,1.0,0.0,0.0,0.0,0.0,1,0,1,0.0,1,0.0,566,1.0
566,15.36472333,27.95041,0.083333333,2,0.083333333,0.25,0,0.0,0.0,0.083333333,0.0,0.0,0.0,0.0,1,0,1,0.0,1,0.0,567,1.0
567,13.84657333,12.43722,0.666666667,0,0.666666667,0.5,0,0.0,0.0,0.666666667,0.0,0.0,0.0,0.0,1,0,1,0.0,1,0.0,568,1.0
568,3.456446667,3.52686,1.0,0,1.0,1.0,0,0.0,0.0,1.0,0.0,0.0,0.0,0.0,1,0,1,0.0,1,0.0,569,1.0
569,6.645126667,14.67011,1.0,0,1.0,1.0,0,0.0,0.0,1.0,0.0,0.0,0.0,0.0,1,0,1,0.0,1,0.0,570,1.0
570,3.787596667,4.97047,1.0,0,1.0,1.0,0,0.0,0.0,1.0,0.0,0.0,0.0,0.0,1,0,1,0.0,1,0.0,571,1.0
571,4.685643333,5.38722,1.0,0,1.0,1.0,0,0.0,0.0,1.0,0.0,0.0,0.0,0.0,1,0,1,0.0,1,0.0,572,1.0
572,10.34507,15.18159,1.0,0,1.0,1.0,0,0.0,0.0,1.0,0.0,0.0,0.0,0.0,1,0,1,0.0,1,0.0,573,1.0
573,10.79012667,14.07233,0.833333333,0,0.833333333,1.0,0,0.0,1.0,0.833333333,0.0,0.0,0.0,0.0,1,0,1,0.0,1,0.0,574,1.0
574,3.957563333,3.91151,1.0,0,1.0,1.0,0,0.0,0.0,1.0,0.0,0.0,0.0,0.0,1,0,1,0.0,1,0.0,575,1.0
575,9.02191,11.59562,1.0,0,1.0,1.0,0,0.0,0.0,1.0,0.0,0.0,0.0,0.0,1,0,1,0.0,1,0.0,576,1.0
576,9.50159,9.30646,1.0,0,1.0,1.0,0,0.0,0.0,1.0,0.0,0.0,0.0,0.0,1,0,1,0.0,1,0.0,577,1.0
577,4.764643333,5.02689,1.0,0,1.0,1.0,0,0.0,0.0,1.0,0.0,0.0,0.0,0.0,1,0,1,0.0,1,0.0,578,1.0
578,8.188653333,3.64465,1.0,0,1.0,1.0,0,0.0,0.0,1.0,0.0,0.0,0.0,0.0,1,0,1,0.0,1,0.0,579,1.0
579,8.780296667,20.37175,1.0,0,1.0,1.0,0,0.0,1.0,1.0,0.0,0.0,0.0,0.0,1,0,1,0.0,1,0.0,580,1.0
580,48.865875,35.68182,0.4165,1,0.4165,0.0,0,0.0,1.0,0.0,0.4165,0.0,0.0,0.0,0,0,0,0.0,1,0.0,581,1.0
581,0.956655,0.55857,0.0,2,0.0,0.0,0,0.0,0.0,0.0,0.0,0.0,0.0,0.0,0,0,0,0.0,1,0.0,582,1.0
582,3.13248,3.40436,1.0,0,1.0,1.0,0,0.0,0.0,1.0,0.0,0.0,0.0,0.0,1,0,1,0.0,1,0.0,583,1.0
583,22.57999333,20.67146,1.0,0,1.0,1.0,0,0.0,0.0,1.0,0.0,0.0,0.0,0.0,1,0,1,0.0,1,0.0,584,1.0
584,1.54266,1.30739,0.0,2,0.0,0.0,0,0.0,0.0,0.0,0.0,0.0,0.0,0.0,0,0,0,0.0,0,0.0,585,1.0
585,8.29227,3.5497,0.75,0,0.75,1.0,0,0.0,0.0,0.75,0.0,0.0,0.0,0.0,1,0,1,0.0,1,0.0,586,0.0
586,4.66627,2.2798,1.0,0,1.0,1.0,0,0.0,1.0,1.0,0.0,0.0,0.0,0.0,1,0,1,0.0,1,0.0,587,1.0
587,5.457293332999999,9.75497,1.0,0,1.0,1.0,0,0.0,0.0,1.0,0.0,0.0,0.0,0.0,1,0,1,0.0,1,0.0,588,1.0
588,18.72146,17.002,1.0,0,1.0,1.0,0,0.0,0.0,1.0,0.0,0.0,0.0,0.0,1,0,1,0.0,1,0.0,589,1.0
589,12.3793,8.108139999999999,1.0,0,1.0,1.0,0,0.0,1.0,1.0,0.0,0.0,0.0,0.0,1,0,1,0.0,1,0.0,590,1.0
590,3.906033333,2.91608,1.0,0,1.0,1.0,0,0.0,0.0,1.0,0.0,0.0,0.0,0.0,1,0,1,0.0,1,0.0,591,1.0
591,38.729648,41.85685,0.825,0,0.825,0.5,0,0.0,0.0,0.0,0.0,0.0,0.0,0.0,0,0,0,0.0,1,0.0,592,1.0
592,7.680966667000001,10.35091,1.0,0,1.0,1.0,0,0.0,0.0,1.0,0.0,0.0,0.0,0.0,1,0,1,0.0,1,0.0,593,1.0
593,16.91931333,36.8407,1.0,0,1.0,1.0,0,0.0,0.0,1.0,0.0,0.0,0.0,0.0,1,0,1,0.0,1,0.0,594,1.0
594,4.425783846,6.79715,0.923076923,1,0.923076923,1.0,0,0.0,0.0,0.0,0.0,0.0,0.0,0.923076923,0,0,0,0.0,1,0.0,595,1.0
595,30.40397667,24.04325,1.0,0,1.0,1.0,0,0.0,0.0,1.0,0.0,0.0,0.0,0.0,1,0,1,0.0,1,0.0,596,1.0
596,2.28572,2.10377,0.0,2,0.0,0.0,0,0.0,0.0,0.0,0.0,0.0,0.0,0.0,0,0,0,0.0,1,0.0,597,1.0
597,37.04175,35.22871,0.9445,0,0.0,1.0,0,0.0,1.0,0.0,0.0,0.9445,0.9445,0.0,0,0,0,0.0,0,0.0,598,1.0
598,8.582143333,16.02896,1.0,0,1.0,1.0,0,0.0,0.0,1.0,0.0,0.0,0.0,0.0,1,0,1,0.0,1,0.0,599,1.0
599,39.039395,40.65877,0.9445,0,0.0,0.889,0,0.0,0.0,0.0,0.0,0.9445,0.9445,0.0,0,0,0,0.0,0,0.0,600,1.0
600,9.229416667,17.06213,1.0,0,1.0,1.0,0,0.0,0.0,1.0,0.0,0.0,0.0,0.0,1,0,1,0.0,1,0.0,601,1.0
601,5.115273333,4.84398,1.0,0,1.0,1.0,0,0.0,0.0,1.0,0.0,0.0,0.0,0.0,1,0,1,0.0,1,0.0,602,1.0
602,4.96652,7.939019999999998,1.0,0,1.0,1.0,0,0.0,0.0,1.0,0.0,0.0,0.0,0.0,1,0,1,0.0,1,0.0,603,1.0
603,3.20803,3.02586,1.0,0,1.0,1.0,0,0.0,0.0,1.0,0.0,0.0,0.0,0.0,1,0,1,0.0,1,0.0,604,1.0
604,32.878370000000004,9.32737,0.389,1,0.0,0.0,0,0.0,0.0,0.0,0.0,0.389,0.389,0.0,0,0,0,0.0,0,0.0,605,1.0
605,5.124613333,9.08895,1.0,0,1.0,1.0,0,0.0,0.0,1.0,0.0,0.0,0.0,0.0,1,0,1,0.0,1,0.0,606,1.0
606,6.44083,6.9181,0.8,0,0.8,0.0,0,0.0,1.0,0.0,0.0,0.0,0.0,0.0,0,0,0,0.0,1,0.0,607,1.0
607,23.177975,29.56582,0.9165,0,0.9165,0.833,0,0.0,0.0,0.0,0.9165,0.0,0.0,0.0,0,0,0,0.0,1,0.0,608,1.0
608,21.785305,24.62302,1.0,0,1.0,1.0,0,0.0,0.0,0.0,1.0,0.0,0.0,0.0,0,0,0,0.0,1,0.0,609,1.0
609,8.091226667,10.70852,1.0,0,1.0,1.0,0,0.0,0.0,1.0,0.0,0.0,0.0,0.0,1,0,1,0.0,1,0.0,610,1.0
610,2.98821,2.10897,1.0,0,1.0,1.0,0,0.0,0.0,0.0,0.0,0.0,0.0,0.0,1,0,0,0.0,1,0.0,611,1.0
611,30.63594,38.0253,0.972,0,0.972,0.944,0,0.0,0.0,0.0,0.972,0.0,0.0,0.0,0,0,0,0.0,1,0.0,612,1.0
612,12.61667333,11.33941,1.0,0,1.0,1.0,0,0.0,0.0,1.0,0.0,0.0,0.0,0.0,1,0,1,0.0,1,0.0,613,1.0
613,47.873155,51.75459,0.9165,0,0.0,0.833,0,0.0,0.0,0.0,0.0,0.9165,0.9165,0.0,0,0,0,0.0,0,0.0,614,1.0
614,54.12996999999999,62.61613000000001,0.861,0,0.0,0.778,0,0.0,0.0,0.0,0.0,0.861,0.861,0.0,0,0,0,0.0,0,0.0,615,1.0
615,3.66381,2.55068,1.0,0,1.0,1.0,0,0.0,0.0,0.0,0.0,0.0,0.0,0.0,1,0,0,0.0,1,0.0,616,1.0
616,4.754033333,4.2547,1.0,0,1.0,1.0,0,0.0,1.0,1.0,0.0,0.0,0.0,0.0,1,0,1,0.0,1,0.0,617,1.0
617,11.63279,11.63279,1.0,0,1.0,1.0,0,0.0,0.0,1.0,0.0,0.0,0.0,0.0,1,0,1,0.0,1,0.0,618,0.0
618,3.22082,4.121580000000002,1.0,0,1.0,1.0,0,0.0,0.0,1.0,0.0,0.0,0.0,0.0,1,0,1,0.0,1,0.0,619,1.0
619,11.99452,17.955460000000006,1.0,0,1.0,1.0,0,0.0,0.0,1.0,0.0,0.0,0.0,0.0,1,0,1,0.0,1,0.0,620,1.0
620,24.32264,24.21973,0.972,0,0.972,1.0,0,0.0,0.0,0.0,0.972,0.0,0.0,0.0,0,0,0,0.0,1,0.0,621,1.0
621,2.821803333,2.14828,1.0,0,1.0,1.0,0,0.0,0.0,1.0,0.0,0.0,0.0,0.0,1,0,1,0.0,1,0.0,622,1.0
622,4.0136333330000005,5.16608,1.0,0,1.0,1.0,0,0.0,0.0,1.0,0.0,0.0,0.0,0.0,1,0,1,0.0,1,0.0,623,1.0
623,10.76458143,12.70083,1.0,0,1.0,1.0,0,0.0,0.0,0.0,0.0,0.0,0.0,0.0,1,0,0,0.0,1,0.0,624,
624,14.71499333,31.01535,1.0,0,1.0,1.0,0,0.0,1.0,0.0,0.0,0.0,0.0,0.0,1,0,0,0.0,1,0.0,625,
625,7.1376800000000005,8.346860000000001,1.0,0,1.0,1.0,0,0.0,0.0,1.0,0.0,0.0,0.0,0.0,1,0,1,0.0,1,0.0,626,1.0
626,7.459606667,7.18357,1.0,0,1.0,1.0,0,0.0,0.0,1.0,0.0,0.0,0.0,0.0,1,0,1,0.0,1,0.0,627,1.0
627,2.419503333,1.88843,1.0,0,1.0,1.0,0,0.0,0.0,1.0,0.0,0.0,0.0,0.0,1,0,1,0.0,1,0.0,628,0.0
628,3.69454,5.56729,1.0,0,1.0,1.0,0,0.0,0.0,1.0,0.0,0.0,0.0,0.0,1,0,1,0.0,1,0.0,629,1.0
629,5.538183332999999,10.65082,1.0,0,1.0,1.0,0,0.0,0.0,1.0,0.0,0.0,0.0,0.0,1,0,1,0.0,1,0.0,630,1.0
630,78.734175,94.74833,0.722,0,0.722,0.722,0,0.0,0.0,0.0,0.722,0.0,0.0,0.0,0,0,0,0.0,1,0.0,631,1.0
631,6.909833333,12.27069,1.0,0,1.0,1.0,0,0.0,0.0,1.0,0.0,0.0,0.0,0.0,1,0,1,0.0,1,0.0,632,1.0
632,28.80025,32.13001,0.8885,0,0.8885,0.833,0,0.0,0.0,0.0,0.8885,0.0,0.0,0.0,0,0,0,0.0,1,0.0,633,1.0
633,7.92386,5.76312,1.0,0,1.0,1.0,0,0.0,0.0,1.0,0.0,0.0,0.0,0.0,1,0,1,0.0,1,0.0,634,1.0
634,3.94544,5.02396,1.0,0,1.0,1.0,0,0.0,0.0,1.0,0.0,0.0,0.0,0.0,1,0,1,0.0,1,0.0,635,1.0
635,5.772876667,10.40858,0.833333333,0,0.833333333,0.5,0,0.0,0.0,0.833333333,0.0,0.0,0.0,0.0,1,0,1,0.0,1,0.0,636,1.0
636,50.949645,56.35001,0.9445,0,0.0,0.889,0,0.0,0.0,0.0,0.0,0.9445,0.9445,0.0,0,0,0,0.0,0,0.0,637,1.0
637,3.71575,2.20459,1.0,0,1.0,1.0,0,0.0,1.0,1.0,0.0,0.0,0.0,0.0,1,0,1,0.0,1,0.0,638,1.0
638,20.96125,44.68971,1.0,0,1.0,1.0,0,0.0,0.0,1.0,0.0,0.0,0.0,0.0,1,0,1,0.0,1,0.0,639,1.0
639,3.74391,5.22079,1.0,0,1.0,1.0,0,0.0,0.0,1.0,0.0,0.0,0.0,0.0,1,0,1,0.0,1,0.0,640,1.0
640,5.464196667,7.318810000000001,1.0,0,1.0,1.0,0,0.0,0.0,1.0,0.0,0.0,0.0,0.0,1,0,1,0.0,1,0.0,641,1.0
641,3.577173333,4.1263,1.0,0,1.0,1.0,0,0.0,0.0,1.0,0.0,0.0,0.0,0.0,1,0,1,0.0,1,0.0,642,1.0
642,16.10526667,38.34228,1.0,0,1.0,1.0,0,0.0,0.0,1.0,0.0,0.0,0.0,0.0,1,0,1,0.0,1,0.0,643,1.0
643,4.82537,2.9202,1.0,0,1.0,1.0,0,0.0,0.0,1.0,0.0,0.0,0.0,0.0,1,0,1,0.0,1,0.0,644,1.0
644,23.52703,23.27908,1.0,0,1.0,1.0,0,0.0,0.0,0.0,1.0,0.0,0.0,0.0,0,0,0,0.0,1,0.0,645,1.0
645,15.10190667,38.12449,1.0,0,1.0,1.0,0,0.0,0.0,1.0,0.0,0.0,0.0,0.0,1,0,1,0.0,1,0.0,646,1.0
646,8.782443333,6.326969999999998,1.0,0,1.0,1.0,0,0.0,0.0,1.0,0.0,0.0,0.0,0.0,1,0,1,0.0,1,0.0,647,1.0
647,5.295603333,7.0279,1.0,0,1.0,1.0,0,0.0,1.0,1.0,0.0,0.0,0.0,0.0,1,0,1,0.0,1,0.0,648,1.0
648,16.693025,17.22635,1.0,0,1.0,1.0,0,0.0,0.0,0.0,1.0,0.0,0.0,0.0,0,0,0,0.0,1,0.0,649,1.0
649,7.395733333,12.08054,1.0,0,1.0,1.0,0,0.0,1.0,1.0,0.0,0.0,0.0,0.0,1,0,1,0.0,1,0.0,650,1.0
650,37.49353,50.00544,0.972,0,0.972,0.944,0,0.0,0.0,0.0,0.972,0.0,0.0,0.0,0,0,0,0.0,1,0.0,651,1.0
651,7.578486667000001,10.57166,1.0,0,1.0,1.0,0,0.0,0.0,1.0,0.0,0.0,0.0,0.0,1,0,1,0.0,1,0.0,652,1.0
652,51.03192,55.37329,1.0,0,0.0,1.0,0,0.0,0.0,0.0,0.0,1.0,1.0,0.0,0,0,0,0.0,0,0.0,653,1.0
653,3.481236667,4.0358800000000015,1.0,0,1.0,1.0,0,0.0,0.0,1.0,0.0,0.0,0.0,0.0,1,0,1,0.0,1,0.0,654,1.0
654,8.181073332999999,8.364339999999999,1.0,0,1.0,1.0,0,0.0,0.0,1.0,0.0,0.0,0.0,0.0,1,0,1,0.0,1,0.0,655,1.0
655,4.781363333,8.55257,1.0,0,1.0,1.0,0,0.0,0.0,1.0,0.0,0.0,0.0,0.0,1,0,1,0.0,1,0.0,656,1.0
656,927.49502,927.49502,0.278,0,0.0,0.278,0,0.0,0.0,0.0,0.0,0.278,0.278,0.0,0,0,0,0.0,0,0.0,657,0.0
657,26.8659,29.18697,0.8885,0,0.8885,0.833,0,0.0,0.0,0.0,0.8885,0.0,0.0,0.0,0,0,0,0.0,1,0.0,658,1.0
658,5.076843333,8.01929,1.0,0,1.0,1.0,0,0.0,0.0,1.0,0.0,0.0,0.0,0.0,1,0,1,0.0,1,0.0,659,1.0
659,27.04353,20.40038,0.8,0,0.8,1.0,0,0.0,0.0,0.0,0.0,0.0,0.0,0.0,1,0,0,0.0,1,0.0,660,0.0
660,30.363185,24.77832,0.889,0,0.0,1.0,0,0.0,0.0,0.0,0.0,0.889,0.889,0.0,0,0,0,0.0,0,0.0,661,1.0
661,30.58492,34.54186,0.972,0,0.972,1.0,0,0.0,0.0,0.0,0.972,0.0,0.0,0.0,0,0,0,0.0,1,0.0,662,1.0
662,16.296329999999998,38.10004,0.833333333,0,0.833333333,0.5,0,0.0,0.0,0.833333333,0.0,0.0,0.0,0.0,1,0,1,0.0,1,0.0,663,1.0
663,6.064616667,12.5733,1.0,0,1.0,1.0,0,0.0,0.0,1.0,0.0,0.0,0.0,0.0,1,0,1,0.0,1,0.0,664,0.0
664,5.701343333,5.99942,1.0,0,1.0,1.0,0,0.0,1.0,1.0,0.0,0.0,0.0,0.0,1,0,1,0.0,1,0.0,665,1.0
665,3.710093333,4.5071900000000005,1.0,0,1.0,1.0,0,0.0,0.0,1.0,0.0,0.0,0.0,0.0,1,0,1,0.0,1,0.0,666,1.0
666,11.76658667,17.36461,1.0,0,1.0,1.0,0,0.0,0.0,1.0,0.0,0.0,0.0,0.0,1,0,1,0.0,1,0.0,667,1.0
667,2.774293333,2.48904,1.0,0,1.0,1.0,0,0.0,0.0,1.0,0.0,0.0,0.0,0.0,1,0,1,0.0,1,0.0,668,1.0
668,10.19494667,11.87778,1.0,0,1.0,1.0,0,0.0,0.0,1.0,0.0,0.0,0.0,0.0,1,0,1,0.0,1,0.0,669,1.0
669,18.29561,20.92952,1.0,0,1.0,1.0,0,0.0,0.0,0.0,1.0,0.0,0.0,0.0,0,0,0,0.0,1,0.0,670,1.0
670,3.928886667,5.59968,1.0,0,1.0,1.0,0,0.0,1.0,1.0,0.0,0.0,0.0,0.0,1,0,1,0.0,1,0.0,671,1.0
671,10.96180333,8.779630000000001,1.0,0,1.0,1.0,0,0.0,0.0,1.0,0.0,0.0,0.0,0.0,1,0,1,0.0,1,0.0,672,1.0
672,6.358663332999999,4.27866,0.833333333,0,0.833333333,1.0,0,0.0,0.0,0.833333333,0.0,0.0,0.0,0.0,1,0,1,0.0,1,0.0,673,1.0
673,11.53197333,10.20664,0.833333333,0,0.833333333,1.0,0,0.0,0.0,0.833333333,0.0,0.0,0.0,0.0,1,0,1,0.0,1,0.0,674,1.0
674,9.73234,16.13851,1.0,0,1.0,1.0,0,0.0,0.0,1.0,0.0,0.0,0.0,0.0,1,0,1,0.0,1,0.0,675,0.0
675,5.38989,9.55653,1.0,0,1.0,1.0,0,0.0,0.0,1.0,0.0,0.0,0.0,0.0,1,0,1,0.0,1,0.0,676,1.0
676,3.67722,4.3509,1.0,0,1.0,1.0,0,0.0,0.0,1.0,0.0,0.0,0.0,0.0,1,0,1,0.0,1,0.0,677,1.0
677,7.00925,10.90227,0.0,2,0.0,0.0,0,0.0,0.0,0.0,0.0,0.0,0.0,0.0,0,0,0,0.0,0,0.0,678,0.0
678,7.801830000000002,17.215999999999998,1.0,0,1.0,1.0,0,0.0,0.0,1.0,0.0,0.0,0.0,0.0,1,0,1,0.0,1,0.0,679,1.0
679,5.078183333,8.91204,1.0,0,1.0,1.0,0,0.0,0.0,1.0,0.0,0.0,0.0,0.0,1,0,1,0.0,1,0.0,680,1.0
680,3.89207,3.455,1.0,0,1.0,1.0,0,0.0,0.0,1.0,0.0,0.0,0.0,0.0,1,0,1,0.0,1,0.0,681,0.0
681,41.76742667,80.41659,1.0,0,1.0,1.0,0,0.0,0.0,1.0,0.0,0.0,0.0,0.0,1,0,1,0.0,1,0.0,682,1.0
682,21.846605,21.87569,0.8885,0,0.8885,0.944,0,0.0,0.0,0.0,0.8885,0.0,0.0,0.0,0,0,0,0.0,1,0.0,683,1.0
683,20.165814,25.29245,0.385,1,0.385,0.8,0,0.0,0.0,0.0,0.0,0.0,0.0,0.0,1,0,0,0.0,1,0.0,684,1.0
684,51.818547,160.32838,1.0,0,1.0,1.0,0,0.0,0.0,0.0,0.0,0.0,0.0,0.0,0,0,0,0.0,1,0.0,685,1.0
685,5.945466667000001,9.69776,1.0,0,1.0,1.0,0,0.0,0.0,1.0,0.0,0.0,0.0,0.0,1,0,1,0.0,1,0.0,686,1.0
686,7.5293,8.95701,1.0,0,1.0,1.0,0,0.0,0.0,1.0,0.0,0.0,0.0,0.0,1,0,1,0.0,1,0.0,687,1.0
687,66.45815,110.9716,1.0,0,1.0,1.0,0,0.0,0.0,1.0,0.0,0.0,0.0,0.0,1,0,1,0.0,1,0.0,688,1.0
688,3.076433333,2.8403400000000003,1.0,0,1.0,1.0,0,0.0,0.0,1.0,0.0,0.0,0.0,0.0,1,0,1,0.0,1,0.0,689,1.0
689,15.542895,15.78685,1.0,0,1.0,1.0,0,0.0,1.0,0.0,1.0,0.0,0.0,0.0,0,0,0,0.0,1,0.0,690,1.0
690,10.48058667,18.83296,1.0,0,1.0,1.0,0,0.0,0.0,1.0,0.0,0.0,0.0,0.0,1,0,1,0.0,1,0.0,691,1.0
691,28.275495000000006,6.21862,0.0,2,0.0,0.0,0,0.0,0.0,0.0,0.0,0.0,0.0,0.0,0,0,0,0.0,1,0.0,692,1.0
692,22.770075,21.82601,0.972,0,0.972,1.0,0,0.0,0.0,0.0,0.972,0.0,0.0,0.0,0,0,0,0.0,1,0.0,693,1.0
693,8.935053332999999,1.37851,0.666666667,1,0.666666667,0.0,0,0.0,0.0,0.0,0.0,0.0,0.0,0.0,1,0,0,0.0,1,0.0,694,0.0
694,17.041965,19.75585,1.0,0,1.0,1.0,0,0.0,0.0,0.0,1.0,0.0,0.0,0.0,0,0,0,0.0,1,0.0,695,1.0
695,1.5437233330000002,1.20102,1.0,0,1.0,1.0,0,0.0,0.0,0.0,0.0,0.0,0.0,0.0,1,0,0,0.0,1,0.0,696,1.0
696,0.91889,0.33395,0.0,2,0.0,0.0,0,0.0,0.0,0.0,0.0,0.0,0.0,0.0,0,0,0,0.0,1,0.0,697,1.0
697,12.702257,54.72984,0.8,0,0.8,0.0,0,0.0,1.0,0.0,0.0,0.0,0.0,0.0,1,0,0,0.0,1,0.0,698,1.0
698,19.034933,24.9887,0.6834,0,0.6834,1.0,0,0.0,0.0,0.0,0.0,0.0,0.0,0.6834,0,0,0,0.0,1,0.0,699,1.0
699,20.570411,135.48905,0.6,0,0.6,0.0,0,0.0,0.0,0.0,0.0,0.0,0.0,0.0,1,0,0,0.0,1,0.0,700,1.0
700,29.471332,139.46544,0.875,0,0.875,0.5,0,0.0,0.0,0.0,0.0,0.0,0.0,0.0,1,0,0,0.0,1,0.0,701,1.0
701,15.347944,17.68638,0.9833,3,0.9833,1.0,0,0.0,0.0,0.0,0.0,0.0,0.0,0.9833,0,0,0,0.0,1,0.0,702,1.0
702,20.215869,52.92624,0.9001,0,0.9001,0.334,0,0.0,0.0,0.0,0.0,0.0,0.0,0.9001,0,0,0,0.0,1,0.0,703,1.0
703,70.247415,119.56451,1.0,0,1.0,1.0,0,0.0,0.0,0.0,0.0,0.0,0.0,0.0,0,0,0,0.0,1,0.0,704,1.0
704,18.161989,24.78604,0.9666,0,0.9666,1.0,0,0.0,0.0,0.0,0.0,0.0,0.0,0.9666,0,0,0,0.0,1,0.0,705,1.0
705,19.145696,53.03912,0.8,0,0.8,1.0,0,0.0,0.0,0.0,0.0,0.0,0.0,0.0,1,0,0,0.0,1,0.0,706,1.0
706,35.631805,51.26587,0.6,1,0.6,0.0,0,0.0,0.0,0.0,0.0,0.0,0.0,0.0,0,0,0,0.0,1,0.0,707,1.0
707,5.213483333,8.70407,1.0,0,1.0,1.0,0,0.0,0.0,1.0,0.0,0.0,0.0,0.0,1,0,1,0.0,1,0.0,708,1.0
708,28.63871,23.5453,0.9165,0,0.0,1.0,0,0.0,0.0,0.0,0.0,0.9165,0.9165,0.0,0,0,0,0.0,0,0.0,709,1.0
709,6.7320600000000015,9.15316,1.0,0,1.0,1.0,0,0.0,0.0,1.0,0.0,0.0,0.0,0.0,1,0,1,0.0,1,0.0,710,1.0
710,32.339009999999995,92.49923,0.8,0,0.8,1.0,0,0.0,0.0,0.0,0.0,0.0,0.0,0.0,1,0,0,0.0,1,0.0,711,1.0
711,20.948891,63.91971,0.8583,0,0.8583,0.25,0,0.0,0.0,0.0,0.0,0.0,0.0,0.8583,0,0,0,0.0,1,0.0,712,1.0
712,10.758196,26.37026,0.6,0,0.6,1.0,0,0.0,0.0,0.0,0.0,0.0,0.0,0.0,0,0,0,0.0,1,0.0,713,1.0
713,49.22272,15.121720000000002,0.7,0,0.7,0.0,0,0.0,0.0,0.0,0.0,0.0,0.0,0.0,0,0,0,0.0,1,0.0,714,1.0
714,27.147845,21.28633,0.625,2,0.625,0.0,0,0.0,0.0,0.0,0.0,0.0,0.0,0.0,0,0,0,0.0,1,0.0,715,1.0
715,5.306181,17.74478,0.4,0,0.4,0.0,0,0.0,0.0,0.0,0.0,0.0,0.0,0.0,0,0,0,0.0,1,0.0,716,1.0
716,6.196763,6.36706,1.0,0,1.0,1.0,0,0.0,0.0,0.0,0.0,0.0,0.0,0.0,1,0,0,0.0,1,0.0,717,1.0
717,23.678248,6.71398,0.6,2,0.6,0.0,0,0.0,0.0,0.0,0.0,0.0,0.0,0.0,0,0,0,0.0,1,0.0,718,1.0
718,16.806232,3.55862,0.7,0,0.7,0.0,0,0.0,0.0,0.0,0.0,0.0,0.0,0.0,0,0,0,0.0,1,0.0,719,1.0
719,13.938718,14.05498,0.8665,0,0.8665,0.944,0,0.0,0.0,0.0,0.0,0.0,0.0,0.0,0,0,0,0.0,1,0.0,720,1.0
720,4.08086,7.08922,1.0,0,1.0,1.0,0,0.0,0.0,1.0,0.0,0.0,0.0,0.0,1,0,1,0.0,1,0.0,721,1.0
721,3.81526,4.28174,1.0,0,1.0,1.0,0,0.0,0.0,1.0,0.0,0.0,0.0,0.0,1,0,1,0.0,1,0.0,722,1.0
722,22.74897,31.5923,0.972,0,0.972,0.944,0,0.0,0.0,0.0,0.972,0.0,0.0,0.0,0,0,0,0.0,1,0.0,723,1.0
723,2.669175,2.78657,1.0,0,1.0,1.0,0,0.0,0.0,1.0,0.0,0.0,0.0,0.0,1,0,1,0.0,1,0.0,724,0.0
724,16.97664667,26.14692,1.0,0,1.0,1.0,0,0.0,0.0,1.0,0.0,0.0,0.0,0.0,1,0,1,0.0,1,0.0,725,1.0
725,44.090485,47.68944000000001,0.972,0,0.0,1.0,0,0.0,0.0,0.0,0.0,0.972,0.972,0.0,0,0,0,0.0,0,0.0,726,1.0
726,4.434223333,5.58544,1.0,0,1.0,1.0,0,0.0,0.0,1.0,0.0,0.0,0.0,0.0,1,0,1,0.0,1,0.0,727,1.0
727,5.16032,6.5060400000000005,1.0,0,1.0,1.0,0,0.0,0.0,1.0,0.0,0.0,0.0,0.0,1,0,1,0.0,1,0.0,728,1.0
728,29.13038,30.621540000000003,0.833,0,0.833,0.833,0,0.0,1.0,0.0,0.833,0.0,0.0,0.0,0,0,0,0.0,1,0.0,729,1.0
729,5.163046667,9.80399,1.0,0,1.0,1.0,0,0.0,1.0,1.0,0.0,0.0,0.0,0.0,1,0,1,0.0,1,0.0,730,1.0
730,27.352220000000006,26.09968,0.972,0,0.0,1.0,0,0.0,0.0,0.0,0.0,0.972,0.972,0.0,0,0,0,0.0,0,0.0,731,1.0
731,33.61915,33.61915,1.0,0,1.0,1.0,0,0.0,0.0,1.0,0.0,0.0,0.0,0.0,1,0,1,0.0,1,0.0,732,1.0
732,4.029003333,4.57412,1.0,0,1.0,1.0,0,0.0,0.0,1.0,0.0,0.0,0.0,0.0,1,0,1,0.0,1,0.0,733,1.0
733,17.45139333,5.90485,1.0,0,1.0,1.0,0,0.0,0.0,1.0,0.0,0.0,0.0,0.0,1,0,1,0.0,1,0.0,734,1.0
734,4.414616667,7.13425,1.0,0,1.0,1.0,0,0.0,0.0,1.0,0.0,0.0,0.0,0.0,1,0,1,0.0,1,0.0,735,1.0
735,3.828186667,4.62838,1.0,0,1.0,1.0,0,0.0,0.0,1.0,0.0,0.0,0.0,0.0,1,0,1,0.0,1,0.0,736,1.0
736,32.99609,53.65105,0.0,2,0.0,0.0,0,0.0,0.0,0.0,0.0,0.0,0.0,0.0,0,0,0,0.0,1,0.0,737,1.0
737,12.39434333,26.77071,0.833333333,0,0.833333333,0.5,0,0.0,0.0,0.833333333,0.0,0.0,0.0,0.0,1,0,1,0.0,1,0.0,738,1.0
738,4.89975,4.89975,0.0,1,0.0,0.0,0,0.0,1.0,0.0,0.0,0.0,0.0,0.0,0,0,0,0.0,1,0.0,739,1.0
739,24.70412,27.675890000000006,0.972,0,0.972,0.944,0,0.0,1.0,0.0,0.972,0.0,0.0,0.0,0,0,0,0.0,1,0.0,740,1.0
740,16.494670000000006,12.88886,1.0,0,1.0,1.0,0,0.0,0.0,0.0,1.0,0.0,0.0,0.0,0,0,0,0.0,1,0.0,741,1.0
741,44.753355,23.26004,0.639,0,0.639,1.0,0,0.0,0.0,0.0,0.639,0.0,0.0,0.0,0,0,0,0.0,1,0.0,742,1.0
742,5.523076667000001,6.88028,1.0,0,1.0,1.0,0,0.0,0.0,1.0,0.0,0.0,0.0,0.0,1,0,1,0.0,1,0.0,743,1.0
743,15.9365,15.3597,1.0,0,1.0,1.0,0,0.0,0.0,1.0,0.0,0.0,0.0,0.0,1,0,1,0.0,1,0.0,744,1.0
744,2.85543,3.97443,0.0,2,0.0,0.0,0,0.0,0.0,0.0,0.0,0.0,0.0,0.0,1,0,1,0.0,1,0.0,745,0.0
745,5.18312,6.8037600000000005,1.0,0,1.0,1.0,0,0.0,0.0,1.0,0.0,0.0,0.0,0.0,1,0,1,0.0,1,0.0,746,1.0
746,27.083145,27.12412,0.944,0,0.944,0.944,0,0.0,0.0,0.0,0.944,0.0,0.0,0.0,0,0,0,0.0,1,0.0,747,1.0
747,5.113526667,9.33029,1.0,0,1.0,1.0,0,0.0,0.0,1.0,0.0,0.0,0.0,0.0,1,0,1,0.0,1,0.0,748,1.0
748,26.165105,4.59705,1.0,0,1.0,1.0,0,0.0,1.0,1.0,0.0,0.0,0.0,0.0,1,0,1,0.0,1,0.0,749,1.0
749,0.60112,0.60112,0.0,1,0.0,0.0,0,0.0,0.0,0.0,0.0,0.0,0.0,0.0,1,0,1,0.0,1,0.0,750,0.0
750,3.869656667,4.16929,1.0,0,1.0,1.0,0,0.0,0.0,1.0,0.0,0.0,0.0,0.0,1,0,1,0.0,1,0.0,751,1.0
751,20.03687,22.72195,0.972,0,0.972,1.0,0,0.0,0.0,0.0,0.972,0.0,0.0,0.0,0,0,0,0.0,1,0.0,752,1.0
752,59.264025,61.56766999999999,0.6945,0,0.0,0.667,0,0.0,1.0,0.0,0.0,0.6945,0.6945,0.0,0,0,0,0.0,0,0.0,753,1.0
753,16.59239333,33.8924,1.0,0,1.0,1.0,0,0.0,0.0,1.0,0.0,0.0,0.0,0.0,1,0,1,0.0,1,0.0,754,1.0
754,30.32067,27.76456,0.944,0,0.944,0.944,0,0.0,0.0,0.0,0.944,0.0,0.0,0.0,0,0,0,0.0,1,0.0,755,1.0
755,33.700135,47.36348,0.9165,0,0.9165,0.833,0,0.0,0.0,0.0,0.9165,0.0,0.0,0.0,0,0,0,0.0,1,0.0,756,1.0
756,10.5014,16.485229999999998,1.0,0,1.0,1.0,0,0.0,0.0,1.0,0.0,0.0,0.0,0.0,1,0,1,0.0,1,0.0,757,1.0
757,16.37998,18.52718,0.972,0,0.972,0.944,0,0.0,0.0,0.0,0.972,0.0,0.0,0.0,0,0,0,0.0,1,0.0,758,1.0
758,88.64521333,94.53825,1.0,0,1.0,1.0,0,0.0,0.0,1.0,0.0,0.0,0.0,0.0,1,0,1,0.0,1,0.0,759,1.0
759,24.4257,7.30282,1.0,0,1.0,1.0,0,0.0,0.0,1.0,0.0,0.0,0.0,0.0,1,0,1,0.0,1,0.0,760,1.0
760,7.408056,13.27516,1.0,0,1.0,1.0,0,0.0,0.0,0.0,0.0,0.0,0.0,1.0,0,0,0,0.0,1,0.0,761,1.0
761,5.513096667,9.5735,1.0,0,1.0,1.0,0,0.0,0.0,1.0,0.0,0.0,0.0,0.0,1,0,1,0.0,1,0.0,762,1.0
762,11.78732667,15.955520000000002,1.0,0,1.0,1.0,0,0.0,0.0,1.0,0.0,0.0,0.0,0.0,1,0,1,0.0,1,0.0,763,1.0
763,7.685396667000001,12.21348,1.0,0,1.0,1.0,0,0.0,0.0,1.0,0.0,0.0,0.0,0.0,1,0,1,0.0,1,0.0,764,1.0
764,22.263055,21.46772,0.972,0,0.972,1.0,0,0.0,0.0,0.0,0.972,0.0,0.0,0.0,0,0,0,0.0,1,0.0,765,1.0
765,16.99177333,1.06557,0.666666667,1,0.666666667,0.0,0,0.0,0.0,0.666666667,0.0,0.0,0.0,0.0,1,0,1,0.0,1,0.0,766,1.0
766,25.74119,21.86636,0.9165,0,0.9165,1.0,0,0.0,1.0,0.0,0.9165,0.0,0.0,0.0,0,0,0,0.0,1,0.0,767,1.0
767,9.131373,7.915539999999999,0.9667,0,0.9667,1.0,0,0.0,0.0,0.0,0.0,0.0,0.0,0.9667,0,0,0,0.0,1,0.0,768,1.0
768,20.46346667,27.21088,1.0,0,1.0,1.0,0,0.0,0.0,1.0,0.0,0.0,0.0,0.0,1,0,1,0.0,1,0.0,769,1.0
769,11.843032,5.09558,0.85,0,0.85,1.0,0,0.0,0.0,0.0,0.0,0.0,0.0,0.0,0,0,0,0.0,1,0.0,770,1.0
770,11.16151667,15.42561,1.0,0,1.0,1.0,0,0.0,1.0,1.0,0.0,0.0,0.0,0.0,1,0,1,0.0,1,0.0,771,1.0
771,10.487185,14.63189,1.0,0,1.0,1.0,0,0.0,0.0,0.0,0.0,0.0,0.0,0.0,0,0,0,0.0,1,0.0,772,1.0
772,27.41030667,48.69622,1.0,0,1.0,1.0,0,0.0,0.0,1.0,0.0,0.0,0.0,0.0,1,0,1,0.0,1,0.0,773,1.0
773,19.98269333,27.37205,1.0,0,1.0,1.0,0,0.0,1.0,1.0,0.0,0.0,0.0,0.0,1,0,1,0.0,1,0.0,774,1.0
774,4.011166667,3.22894,1.0,0,1.0,1.0,0,0.0,0.0,1.0,0.0,0.0,0.0,0.0,1,0,1,0.0,1,0.0,775,1.0
775,13.70806,28.71477,0.8,1,0.8,0.0,0,0.8,0.0,0.0,0.0,0.0,0.0,0.0,1,1,0,0.0,1,0.0,776,1.0
776,18.6077,21.65656,1.0,0,1.0,1.0,0,0.0,0.0,0.0,1.0,0.0,0.0,0.0,0,0,0,0.0,1,0.0,777,1.0
777,16.85455667,33.57324000000001,1.0,0,1.0,1.0,0,0.0,0.0,1.0,0.0,0.0,0.0,0.0,1,0,1,0.0,1,0.0,778,0.0
778,14.97629,14.97629,0.0,1,0.0,0.0,0,0.0,1.0,0.0,0.0,0.0,0.0,0.0,1,0,1,0.0,1,0.0,779,0.0
779,6.011053333,9.79011,1.0,0,1.0,1.0,0,0.0,0.0,1.0,0.0,0.0,0.0,0.0,1,0,1,0.0,1,0.0,780,1.0
780,11.93984,7.82407,1.0,0,1.0,1.0,0,0.0,0.0,1.0,0.0,0.0,0.0,0.0,1,0,1,0.0,1,0.0,781,1.0
781,14.11906,15.66199,1.0,0,1.0,1.0,0,0.0,0.0,1.0,0.0,0.0,0.0,0.0,1,0,1,0.0,1,0.0,782,1.0
782,10.10758667,16.67675,1.0,0,1.0,1.0,0,0.0,0.0,1.0,0.0,0.0,0.0,0.0,1,0,1,0.0,1,0.0,783,1.0
783,3.857946667,3.61976,1.0,0,1.0,1.0,0,0.0,0.0,1.0,0.0,0.0,0.0,0.0,1,0,1,0.0,1,0.0,784,1.0
784,12.63464,18.8821,1.0,0,1.0,1.0,0,0.0,0.0,1.0,0.0,0.0,0.0,0.0,1,0,1,0.0,1,0.0,785,0.0
785,23.86311,23.86311,1.0,0,1.0,1.0,0,0.0,0.0,1.0,0.0,0.0,0.0,0.0,1,0,1,0.0,1,0.0,786,1.0
786,3.653643333,6.16815,1.0,0,1.0,1.0,0,0.0,0.0,1.0,0.0,0.0,0.0,0.0,1,0,1,0.0,1,0.0,787,1.0
787,22.66606,22.66606,1.0,0,1.0,1.0,0,0.0,0.0,1.0,0.0,0.0,0.0,0.0,1,0,1,0.0,1,0.0,788,0.0
788,7.49445,12.95858,0.333333333,0,0.333333333,0.0,0,0.0,1.0,0.0,0.0,0.0,0.0,0.0,1,0,0,0.0,1,0.0,789,1.0
789,17.81875333,27.24046,1.0,0,1.0,1.0,0,0.0,1.0,1.0,0.0,0.0,0.0,0.0,1,0,1,0.0,1,0.0,790,1.0
790,4.8649133330000005,2.30717,1.0,0,1.0,1.0,0,0.0,0.0,1.0,0.0,0.0,0.0,0.0,1,0,1,0.0,1,0.0,791,1.0
791,9.117643333,7.5160300000000015,1.0,0,1.0,1.0,0,0.0,0.0,1.0,0.0,0.0,0.0,0.0,1,0,1,0.0,1,0.0,792,1.0
792,16.142837,24.81105,1.0,0,1.0,1.0,0,0.0,0.0,0.0,0.0,0.0,0.0,0.0,0,0,0,0.0,1,0.0,793,1.0
793,42.566873,24.7115,0.4,0,0.4,0.0,0,0.0,0.0,0.0,0.0,0.0,0.0,0.0,0,0,0,0.0,1,0.0,794,1.0
794,5.867844,1.94561,0.9,0,0.9,0.0,0,0.0,0.0,0.0,0.0,0.0,0.0,0.0,1,0,0,0.0,1,0.0,795,1.0
795,30.013445,36.5725,1.0,0,1.0,1.0,0,0.0,0.0,0.0,0.0,0.0,0.0,0.0,0,0,0,0.0,1,0.0,796,1.0
796,11.865675,17.88814,0.9443,0,0.9443,1.0,0,0.0,0.0,0.0,0.0,0.0,0.9443,0.0,0,0,0,0.0,1,0.0,797,1.0
797,17.096141,25.03089,1.0,0,1.0,1.0,0,0.0,0.0,0.0,0.0,0.0,0.0,0.0,0,0,0,0.0,1,0.0,798,1.0
798,54.513503,75.6236,0.2,0,0.2,1.0,0,0.0,0.0,0.0,0.0,0.0,0.0,0.0,0,0,0,0.0,1,0.0,799,1.0
799,40.747357,93.03257,0.7,0,0.7,0.0,0,0.0,0.0,0.0,0.0,0.0,0.0,0.0,0,0,0,0.0,1,0.0,800,1.0
800,65.40329200000001,66.42933000000001,0.1,0,0.1,0.0,0,0.0,0.0,0.0,0.0,0.0,0.0,0.0,0,0,0,0.0,1,0.0,801,1.0
801,11.615333,12.46879,0.9875,0,0.9875,0.875,0,0.0,0.0,0.0,0.0,0.0,0.0,0.0,0,0,0,0.0,1,0.0,802,1.0
802,19.417473,27.87567,1.0,0,1.0,1.0,0,0.0,0.0,0.0,0.0,0.0,0.0,0.0,0,0,0,0.0,1,0.0,803,1.0
803,43.014081,10.71789,0.3,0,0.3,1.0,0,0.0,0.0,0.0,0.0,0.0,0.0,0.0,0,0,0,0.0,1,0.0,804,1.0
804,9.144027,48.4043,0.2,0,0.2,1.0,0,0.0,0.0,0.0,0.0,0.0,0.0,0.0,0,0,0,0.0,1,0.0,805,1.0
805,13.023992,14.11674,0.7664,0,0.7664,0.55,0,0.0,0.0,0.0,0.0,0.0,0.0,0.0,1,0,0,0.0,1,0.0,806,1.0
806,24.82276,10.00655,0.5,1,0.5,1.0,0,0.0,0.0,0.0,0.0,0.0,0.0,0.0,0,0,0,0.0,1,0.0,807,1.0
807,29.984021,17.79757,0.3,0,0.3,1.0,0,0.0,1.0,0.0,0.0,0.0,0.0,0.0,0,0,0,0.0,1,0.0,808,1.0
808,4.3949940000000005,14.404370000000002,0.075,8,0.075,0.25,0,0.0,0.0,0.0,0.0,0.0,0.0,0.0,1,0,0,0.0,1,0.0,809,1.0
809,5.58452,4.48361,1.0,0,1.0,1.0,0,0.0,0.0,1.0,0.0,0.0,0.0,0.0,1,0,1,0.0,1,0.0,810,1.0
810,21.499525,25.79524,1.0,0,1.0,1.0,0,0.0,0.0,0.0,1.0,0.0,0.0,0.0,0,0,0,0.0,1,0.0,811,1.0
811,2.742296667,2.19236,1.0,0,1.0,1.0,0,0.0,0.0,1.0,0.0,0.0,0.0,0.0,1,0,1,0.0,1,0.0,812,1.0
812,1.334599,5.52147,0.0,10,0.0,0.0,0,0.0,1.0,0.0,0.0,0.0,0.0,0.0,0,0,0,0.0,1,0.0,813,1.0
813,35.11042333,72.15553,1.0,0,1.0,1.0,0,0.0,0.0,1.0,0.0,0.0,0.0,0.0,1,0,1,0.0,1,0.0,814,1.0
814,10.25015667,17.824279999999995,1.0,0,1.0,1.0,0,0.0,0.0,1.0,0.0,0.0,0.0,0.0,1,0,1,0.0,1,0.0,815,1.0
815,10.39993,19.754,0.0,2,0.0,0.0,0,0.0,0.0,0.0,0.0,0.0,0.0,0.0,0,0,0,0.0,0,0.0,816,1.0
816,10.75837,6.9474100000000005,1.0,0,1.0,1.0,0,0.0,0.0,1.0,0.0,0.0,0.0,0.0,1,0,1,0.0,1,0.0,817,1.0
817,5.429855,3.6346,1.0,0,1.0,1.0,0,0.0,0.0,0.0,0.0,0.0,0.0,0.0,0,0,0,0.0,1,0.0,818,1.0
818,32.062090000000005,47.49679,1.0,0,1.0,1.0,0,0.0,0.0,1.0,0.0,0.0,0.0,0.0,1,0,1,0.0,1,0.0,819,1.0
819,11.68001333,11.50393,0.666666667,1,0.666666667,0.0,0,0.0,0.0,0.666666667,0.0,0.0,0.0,0.0,1,0,1,0.0,1,0.0,820,1.0
820,100.9579733,44.03068,1.0,0,1.0,1.0,0,0.0,0.0,1.0,0.0,0.0,0.0,0.0,1,0,1,0.0,1,0.0,821,1.0
821,13.594079999999998,16.71719,1.0,0,1.0,1.0,0,0.0,0.0,1.0,0.0,0.0,0.0,0.0,1,0,1,0.0,1,0.0,822,1.0
822,16.51769667,27.14316,1.0,0,1.0,1.0,0,0.0,0.0,1.0,0.0,0.0,0.0,0.0,1,0,1,0.0,1,0.0,823,1.0
823,3.904836667,5.22702,1.0,0,1.0,1.0,0,0.0,0.0,1.0,0.0,0.0,0.0,0.0,1,0,1,0.0,1,0.0,824,1.0
824,12.50822,15.640999999999998,1.0,0,1.0,1.0,0,0.0,0.0,1.0,0.0,0.0,0.0,0.0,1,0,1,0.0,1,0.0,825,1.0
825,48.788165,63.37123,0.944,0,0.944,0.944,0,0.0,0.0,0.0,0.944,0.0,0.0,0.0,0,0,0,0.0,1,0.0,826,1.0
826,0.49925,0.49925,0.0,1,0.0,0.0,0,0.0,0.0,0.0,0.0,0.0,0.0,0.0,0,0,0,0.0,1,0.0,827,1.0
827,24.10709,25.90403,0.972,0,0.972,0.944,0,0.0,0.0,0.0,0.972,0.0,0.0,0.0,0,0,0,0.0,1,0.0,828,1.0
828,5.402926667000001,10.58292,0.666666667,1,0.666666667,1.0,0,0.0,0.0,0.666666667,0.0,0.0,0.0,0.0,1,0,1,0.0,1,0.0,829,1.0
829,18.162685,19.36946,1.0,0,1.0,1.0,0,0.0,0.0,0.0,1.0,0.0,0.0,0.0,0,0,0,0.0,1,0.0,830,1.0
830,8.105996667000001,15.07349,1.0,0,1.0,1.0,0,0.0,0.0,1.0,0.0,0.0,0.0,0.0,1,0,1,0.0,1,0.0,831,1.0
831,18.006764999999994,31.17985,0.472,1,0.472,0.944,0,0.0,1.0,0.0,0.472,0.0,0.0,0.0,0,0,0,0.0,1,0.0,832,1.0
832,8.003243333,12.33914,1.0,0,1.0,1.0,0,0.0,0.0,1.0,0.0,0.0,0.0,0.0,1,0,1,0.0,1,0.0,833,1.0
833,8.908713333,10.52282,1.0,0,1.0,1.0,0,0.0,0.0,1.0,0.0,0.0,0.0,0.0,1,0,1,0.0,1,0.0,834,1.0
834,24.531565,24.03191,1.0,0,1.0,1.0,0,0.0,0.0,0.0,1.0,0.0,0.0,0.0,0,0,0,0.0,1,0.0,835,1.0
835,3.694766667,4.97696,1.0,0,1.0,1.0,0,0.0,0.0,1.0,0.0,0.0,0.0,0.0,1,0,1,0.0,1,0.0,836,1.0
836,2.659323333,4.11727,1.0,0,1.0,1.0,0,0.0,0.0,0.0,0.0,0.0,0.0,0.0,1,0,0,0.0,1,0.0,837,1.0
837,13.2187495,35.77592999999999,0.75,0,0.75,1.0,0,0.0,0.0,0.0,0.0,0.0,0.0,0.0,1,0,0,0.0,1,0.0,838,1.0
838,25.83672,40.29577000000001,1.0,0,1.0,1.0,0,0.0,0.0,0.0,0.0,0.0,0.0,0.0,0,0,0,0.0,1,0.0,839,1.0
839,10.64265,12.4945,1.0,0,1.0,1.0,0,0.0,0.0,1.0,0.0,0.0,0.0,0.0,1,0,1,0.0,1,0.0,840,1.0
840,35.23857,38.59656,0.9165,0,0.0,0.944,0,0.0,0.0,0.0,0.0,0.9165,0.9165,0.0,0,0,0,0.0,0,0.0,841,1.0
841,9.54524,13.77317,1.0,0,1.0,1.0,0,0.0,1.0,1.0,0.0,0.0,0.0,0.0,1,0,1,0.0,1,0.0,842,1.0
842,13.8179,13.8179,0.0,1,0.0,0.0,0,0.0,0.0,0.0,0.0,0.0,0.0,0.0,0,0,0,0.0,0,0.0,843,0.0
843,4.283136667,6.35994,1.0,0,1.0,1.0,0,0.0,0.0,1.0,0.0,0.0,0.0,0.0,1,0,1,0.0,1,0.0,844,1.0
844,51.84184000000001,72.76993,0.861,0,0.861,0.722,0,0.0,0.0,0.0,0.861,0.0,0.0,0.0,0,0,0,0.0,1,0.0,845,1.0
845,16.90358333,15.71414,1.0,0,1.0,1.0,0,0.0,0.0,1.0,0.0,0.0,0.0,0.0,1,0,1,0.0,1,0.0,846,1.0
846,4.4886933330000005,6.5918199999999985,1.0,0,1.0,1.0,0,0.0,0.0,1.0,0.0,0.0,0.0,0.0,1,0,1,0.0,1,0.0,847,1.0
847,8.771726667000001,12.30484,0.5,1,0.5,0.5,0,0.0,0.0,0.5,0.0,0.0,0.0,0.0,1,0,1,0.0,1,0.0,848,1.0
848,5.28992,9.0489,1.0,0,1.0,1.0,0,0.0,1.0,1.0,0.0,0.0,0.0,0.0,1,0,1,0.0,1,0.0,849,1.0
849,36.56818333,21.56427,1.0,0,1.0,1.0,0,0.0,0.0,1.0,0.0,0.0,0.0,0.0,1,0,1,0.0,1,0.0,850,1.0
850,34.65024333,49.58701,0.833333333,0,0.833333333,0.5,0,0.0,0.0,0.833333333,0.0,0.0,0.0,0.0,1,0,1,0.0,1,0.0,851,1.0
851,17.923115,27.79557,0.5,1,0.5,1.0,0,0.0,0.0,0.0,0.5,0.0,0.0,0.0,0,0,0,0.0,1,0.0,852,0.0
852,14.970925,17.202189999999998,0.625,0,0.625,0.25,0,0.0,0.0,0.0,0.0,0.0,0.0,0.0,0,0,0,0.0,1,0.0,853,1.0
853,3.692283333,5.0164800000000005,1.0,0,1.0,1.0,0,0.0,0.0,1.0,0.0,0.0,0.0,0.0,1,0,1,0.0,1,0.0,854,1.0
854,28.651555,33.2381,1.0,0,1.0,1.0,0,0.0,0.0,0.0,1.0,0.0,0.0,0.0,0,0,0,0.0,1,0.0,855,1.0
855,19.12762,26.06058,1.0,0,1.0,1.0,0,0.0,0.0,0.0,0.0,0.0,0.0,0.0,1,0,0,0.0,1,0.0,856,1.0
856,7.776696667,15.487470000000002,1.0,0,1.0,1.0,0,0.0,0.0,1.0,0.0,0.0,0.0,0.0,1,0,1,0.0,1,0.0,857,1.0
857,16.11919333,21.32086,1.0,0,1.0,1.0,0,0.0,0.0,1.0,0.0,0.0,0.0,0.0,1,0,1,0.0,1,0.0,858,1.0
858,4.770566667,4.53866,1.0,0,1.0,1.0,0,0.0,0.0,1.0,0.0,0.0,0.0,0.0,1,0,1,0.0,1,0.0,859,1.0
859,9.4267,9.4267,1.0,0,1.0,1.0,0,0.0,0.0,0.0,0.0,0.0,1.0,0.0,0,0,0,0.0,1,0.0,860,1.0
860,52.23328,52.23328,1.0,0,0.0,1.0,0,0.0,0.0,0.0,0.0,0.0,0.0,0.0,0,0,0,0.0,0,0.0,861,
861,22.53449667,18.70149,1.0,0,1.0,1.0,0,0.0,0.0,1.0,0.0,0.0,0.0,0.0,1,0,1,0.0,1,0.0,862,1.0
862,38.44759000000001,40.94027,0.972,0,0.0,0.944,0,0.0,0.0,0.0,0.0,0.972,0.972,0.0,0,0,0,0.0,0,0.0,863,1.0
863,11.11568667,17.943839999999994,1.0,0,1.0,1.0,0,0.0,0.0,1.0,0.0,0.0,0.0,0.0,1,0,1,0.0,1,0.0,864,1.0
864,24.89163333,23.81029,0.833333333,0,0.833333333,0.5,0,0.0,0.0,0.833333333,0.0,0.0,0.0,0.0,1,0,1,0.0,1,0.0,865,1.0
865,8.449346667,4.77146,0.666666667,1,0.666666667,1.0,0,0.0,0.0,0.666666667,0.0,0.0,0.0,0.0,1,0,1,0.0,1,0.0,866,1.0
866,9.796033332999999,11.36705,0.5,0,0.5,1.0,0,0.0,0.0,0.5,0.0,0.0,0.0,0.0,1,0,1,0.0,1,0.0,867,1.0
867,8.01207,9.31475,1.0,0,1.0,1.0,0,0.0,0.0,1.0,0.0,0.0,0.0,0.0,1,0,1,0.0,1,0.0,868,1.0
868,5.23856,4.0204,1.0,0,1.0,1.0,0,0.0,1.0,1.0,0.0,0.0,0.0,0.0,1,0,1,0.0,1,0.0,869,1.0
869,7.7888199999999985,7.7888199999999985,1.0,0,1.0,1.0,0,0.0,0.0,1.0,0.0,0.0,0.0,0.0,1,0,1,0.0,1,0.0,870,0.0
870,29.109375,39.46041,0.9442,0,0.9442,0.944,1,0.0,0.0,0.0,0.0,0.0,0.0,0.0,0,0,0,0.0,1,0.0,871,1.0
871,76.88184,64.66436999999999,0.972,0,0.0,1.0,0,0.0,0.0,0.0,0.0,0.972,0.972,0.0,0,0,0,0.0,0,0.0,872,1.0
872,4.602546667,5.86562,1.0,0,1.0,1.0,0,0.0,0.0,1.0,0.0,0.0,0.0,0.0,1,0,1,0.0,1,0.0,873,1.0
873,4.145243333,6.23062,1.0,0,1.0,1.0,0,0.0,0.0,1.0,0.0,0.0,0.0,0.0,1,0,1,0.0,1,0.0,874,1.0
874,7.940616667,10.51463,1.0,0,1.0,1.0,0,0.0,0.0,1.0,0.0,0.0,0.0,0.0,1,0,1,0.0,1,0.0,875,1.0
875,13.99917,13.99917,1.0,0,1.0,1.0,0,0.0,0.0,1.0,0.0,0.0,0.0,0.0,1,0,1,0.0,1,0.0,876,0.0
876,1.86512,1.86512,0.0,1,0.0,0.0,0,0.0,0.0,0.0,0.0,0.0,0.0,0.0,0,0,0,0.0,1,0.0,877,0.0
877,184.09736,243.01264,0.4305,0,0.0,0.25,0,0.0,0.0,0.0,0.0,0.4305,0.4305,0.0,0,0,0,0.0,0,0.0,878,1.0
878,6.297973333,1.12143,0.666666667,1,0.666666667,0.0,0,0.0,0.0,0.666666667,0.0,0.0,0.0,0.0,1,0,1,0.0,1,0.0,879,1.0
879,6.093453332999999,10.43615,1.0,0,1.0,1.0,0,0.0,0.0,1.0,0.0,0.0,0.0,0.0,1,0,1,0.0,1,0.0,880,1.0
880,20.903005,13.4052,0.0,1,0.0,0.0,0,0.0,0.0,0.0,0.0,0.0,0.0,0.0,0,0,0,0.0,1,0.0,881,1.0
881,9.673946667000001,5.95604,0.75,0,0.75,1.0,0,0.0,0.0,0.75,0.0,0.0,0.0,0.0,1,0,1,0.0,1,0.0,882,1.0
882,10.66959667,10.26322,1.0,0,1.0,1.0,0,0.0,0.0,1.0,0.0,0.0,0.0,0.0,1,0,1,0.0,1,0.0,883,0.0
883,36.2158,36.2158,1.0,0,1.0,1.0,0,0.0,0.0,1.0,0.0,0.0,0.0,0.0,1,0,1,0.0,1,0.0,884,1.0
884,22.93035533,21.85238,0.933333333,0,0.933333333,1.0,0,0.0,0.0,0.0,0.0,0.0,0.0,0.0,1,0,0,0.0,1,0.0,885,
885,23.30696,27.05706,1.0,0,1.0,1.0,0,0.0,0.0,1.0,0.0,0.0,0.0,0.0,1,0,1,0.0,1,0.0,886,1.0
886,10.88429667,11.58244,1.0,0,1.0,1.0,0,0.0,0.0,1.0,0.0,0.0,0.0,0.0,1,0,1,0.0,1,0.0,887,1.0
887,8.744146667,7.64377,1.0,0,1.0,1.0,0,0.0,0.0,1.0,0.0,0.0,0.0,0.0,1,0,1,0.0,1,0.0,888,1.0
888,37.22274,15.84731,1.0,0,1.0,1.0,0,0.0,0.0,1.0,0.0,0.0,0.0,0.0,1,0,1,0.0,1,0.0,889,1.0
889,12.14427667,25.72964,1.0,0,1.0,1.0,0,0.0,0.0,1.0,0.0,0.0,0.0,0.0,1,0,1,0.0,1,0.0,890,1.0
890,5.317616667,9.50821,1.0,0,1.0,1.0,0,0.0,0.0,1.0,0.0,0.0,0.0,0.0,1,0,1,0.0,1,0.0,891,1.0
891,8.99815,15.60826,1.0,0,1.0,1.0,0,0.0,0.0,1.0,0.0,0.0,0.0,0.0,1,0,1,0.0,1,0.0,892,1.0
892,10.94516333,21.49086,1.0,0,1.0,1.0,0,0.0,0.0,1.0,0.0,0.0,0.0,0.0,1,0,1,0.0,1,0.0,893,1.0
893,8.235866667,6.1380300000000005,0.833333333,0,0.833333333,1.0,0,0.0,0.0,0.833333333,0.0,0.0,0.0,0.0,1,0,1,0.0,1,0.0,894,1.0
894,13.997635,12.43242,1.0,0,1.0,1.0,0,0.0,0.0,1.0,0.0,0.0,0.0,0.0,1,0,1,0.0,1,0.0,895,1.0
895,10.9036,10.9036,1.0,0,1.0,1.0,0,0.0,0.0,1.0,0.0,0.0,0.0,0.0,1,0,1,0.0,1,0.0,896,0.0
896,5.969866667000001,9.93991,1.0,0,1.0,1.0,0,0.0,0.0,1.0,0.0,0.0,0.0,0.0,1,0,1,0.0,1,0.0,897,0.0
897,27.76433,44.62823,1.0,0,1.0,1.0,0,0.0,0.0,0.0,0.0,0.0,0.0,0.0,0,0,0,0.0,1,0.0,898,1.0
898,19.839798,24.16084,0.85,0,0.85,1.0,0,0.0,0.0,0.0,0.0,0.0,0.0,0.0,1,0,0,0.0,1,0.0,899,1.0
899,8.308143,24.74131,1.0,0,1.0,1.0,0,0.0,0.0,0.0,0.0,0.0,0.0,0.0,1,0,0,0.0,1,0.0,900,1.0
900,12.709409,20.19274,1.0,0,1.0,1.0,0,0.0,0.0,0.0,0.0,0.0,0.0,0.0,1,0,0,0.0,1,0.0,901,1.0
901,15.990459,101.74682,1.0,0,1.0,1.0,0,0.0,0.0,0.0,0.0,0.0,0.0,0.0,1,0,0,0.0,1,0.0,902,1.0
902,53.71125,58.74144,1.0,0,1.0,1.0,0,0.0,0.0,0.0,1.0,0.0,0.0,0.0,0,0,0,0.0,1,0.0,903,1.0
903,10.95984,7.35377,1.0,0,1.0,1.0,0,0.0,0.0,1.0,0.0,0.0,0.0,0.0,1,0,1,0.0,1,0.0,904,0.0
904,4.465743333,7.660139999999998,1.0,0,1.0,1.0,0,0.0,0.0,1.0,0.0,0.0,0.0,0.0,1,0,1,0.0,1,0.0,905,1.0
905,10.40222,15.71248,1.0,0,1.0,1.0,0,0.0,0.0,1.0,0.0,0.0,0.0,0.0,1,0,1,0.0,1,0.0,906,1.0
906,4.47992,1.50579,0.0,2,0.0,0.0,0,0.0,0.0,0.0,0.0,0.0,0.0,0.0,0,0,0,0.0,0,0.0,907,1.0
907,18.29868333,35.39749000000001,0.444333333,2,0.444333333,0.333,0,0.0,0.0,0.0,0.444333333,0.0,0.0,0.0,0,0,0,0.0,1,0.0,908,1.0
908,4.338736667,4.0456699999999985,1.0,0,1.0,1.0,0,0.0,0.0,1.0,0.0,0.0,0.0,0.0,1,0,1,0.0,1,0.0,909,1.0
909,6.322226667000001,13.21504,1.0,0,1.0,1.0,0,0.0,0.0,1.0,0.0,0.0,0.0,0.0,1,0,1,0.0,1,0.0,910,1.0
910,5.421893333,9.14027,1.0,0,1.0,1.0,1,0.0,0.0,1.0,0.0,0.0,0.0,0.0,1,0,1,0.0,1,0.0,911,1.0
911,21.51895667,19.38312,1.0,0,1.0,1.0,0,0.0,0.0,1.0,0.0,0.0,0.0,0.0,1,0,1,0.0,1,0.0,912,1.0
912,6.803703333,6.94427,1.0,0,1.0,1.0,0,0.0,0.0,0.0,0.0,0.0,0.0,0.0,1,0,0,0.0,1,0.0,913,1.0
913,21.62751,23.88819,0.833333333,0,0.833333333,1.0,0,0.0,0.0,0.833333333,0.0,0.0,0.0,0.0,1,0,1,0.0,1,0.0,914,1.0
914,16.12129333,20.05658,1.0,0,1.0,1.0,0,0.0,1.0,0.0,0.0,0.0,0.0,0.0,1,0,0,0.0,1,0.0,915,1.0
915,14.98187667,25.21319,1.0,0,1.0,1.0,0,0.0,0.0,1.0,0.0,0.0,0.0,0.0,1,0,1,0.0,1,0.0,916,1.0
916,9.750041332999999,16.54158,0.9294,0,0.9294,1.0,0,0.0,0.0,0.0,0.0,0.0,0.0,0.0,0,0,0,0.0,1,0.0,917,
917,9.555332,6.92992,0.966666667,0,0.966666667,1.0,0,0.0,0.0,0.0,0.0,0.0,0.0,0.0,1,0,0,0.0,1,0.0,918,1.0
918,22.94975,22.94975,1.0,0,1.0,1.0,0,0.0,0.0,1.0,0.0,0.0,0.0,0.0,1,0,1,0.0,1,0.0,919,0.0
919,27.105045,32.23762,1.0,0,1.0,1.0,0,0.0,0.0,0.0,1.0,0.0,0.0,0.0,0,0,0,0.0,1,0.0,920,0.0
920,5.414255333,11.76849,1.0,0,1.0,1.0,0,0.0,0.0,0.0,0.0,0.0,0.0,0.0,1,0,0,0.0,1,0.0,921,1.0
921,4.918816667,8.67857,1.0,0,1.0,1.0,0,0.0,0.0,1.0,0.0,0.0,0.0,0.0,1,0,1,0.0,1,0.0,922,1.0
922,10.16998,18.42579,1.0,0,1.0,1.0,0,0.0,1.0,1.0,0.0,0.0,0.0,0.0,1,0,1,0.0,1,0.0,923,1.0
923,22.84513,22.84513,1.0,0,1.0,1.0,0,0.0,0.0,0.0,0.0,0.0,0.0,0.0,0,0,0,0.0,1,0.0,924,
924,12.90435667,14.34163,1.0,0,1.0,1.0,0,0.0,0.0,1.0,0.0,0.0,0.0,0.0,1,0,1,0.0,1,0.0,925,1.0
925,21.96825,30.70048,1.0,0,1.0,1.0,0,0.0,0.0,0.0,0.0,0.0,0.0,0.0,0,0,0,0.0,1,0.0,926,1.0
926,31.94696,31.94696,0.75,0,0.0,0.75,0,0.0,0.0,0.0,0.0,0.75,0.0,0.0,0,0,0,0.0,0,0.0,927,1.0
927,32.075485,32.90408,1.0,0,1.0,1.0,0,0.0,0.0,1.0,0.0,0.0,0.0,0.0,1,0,1,0.0,1,0.0,928,0.0
928,11.92979667,7.361089999999999,0.666666667,0,0.666666667,1.0,0,0.0,0.0,0.0,0.0,0.0,0.0,0.0,1,0,0,0.0,1,0.0,929,1.0
929,5.548013332999999,7.20948,1.0,0,1.0,1.0,0,0.0,0.0,1.0,0.0,0.0,0.0,0.0,1,0,1,0.0,1,0.0,930,1.0
930,6.875456667000001,14.74757,1.0,0,1.0,1.0,0,0.0,0.0,1.0,0.0,0.0,0.0,0.0,1,0,1,0.0,1,0.0,931,1.0
931,6.38785,12.53541,1.0,0,1.0,1.0,0,0.0,0.0,1.0,0.0,0.0,0.0,0.0,1,0,1,0.0,1,0.0,932,1.0
932,21.35296667,33.779070000000004,1.0,0,1.0,1.0,0,0.0,0.0,1.0,0.0,0.0,0.0,0.0,1,0,1,0.0,1,0.0,933,1.0
933,9.566963333,8.872639999999997,0.4166666670000001,1,0.4166666670000001,1.0,0,0.0,0.0,0.4166666670000001,0.0,0.0,0.0,0.0,1,0,1,0.0,1,0.0,934,1.0
934,11.69142333,16.69151,1.0,0,1.0,1.0,0,0.0,0.0,1.0,0.0,0.0,0.0,0.0,1,0,1,0.0,1,0.0,935,1.0
935,19.11544,13.5954,1.0,0,1.0,1.0,0,0.0,0.0,1.0,0.0,0.0,0.0,0.0,1,0,1,0.0,1,0.0,936,1.0
936,2.878426667,4.8863699999999985,1.0,0,1.0,1.0,0,0.0,0.0,0.0,0.0,0.0,0.0,0.0,1,0,0,0.0,1,0.0,937,1.0
937,6.589973333,13.37316,1.0,0,1.0,1.0,0,0.0,1.0,1.0,0.0,0.0,0.0,0.0,1,0,1,0.0,1,0.0,938,1.0
938,17.58538333,32.09478,1.0,0,1.0,1.0,0,0.0,0.0,1.0,0.0,0.0,0.0,0.0,1,0,1,0.0,1,0.0,939,1.0
939,1.26463,1.26463,0.0,1,0.0,0.0,0,0.0,0.0,0.0,0.0,0.0,0.0,0.0,1,0,0,0.0,1,0.0,940,0.0
940,6.307653332999999,12.02829,1.0,0,1.0,1.0,0,0.0,0.0,1.0,0.0,0.0,0.0,0.0,1,0,1,0.0,1,0.0,941,1.0
941,5.435976667,7.631839999999999,1.0,0,1.0,1.0,0,0.0,0.0,0.0,0.0,0.0,0.0,0.0,1,0,0,0.0,1,0.0,942,1.0
942,62.98916667,59.86973,0.666666667,0,0.666666667,0.5,0,0.0,0.0,0.666666667,0.0,0.0,0.0,0.0,1,0,1,0.0,1,0.0,943,1.0
943,39.334485,54.0825,0.861,0,0.861,0.722,0,0.0,0.0,0.0,0.861,0.0,0.0,0.0,0,0,0,0.0,1,0.0,944,1.0
944,6.78141,8.03738,1.0,0,1.0,1.0,0,0.0,0.0,1.0,0.0,0.0,0.0,0.0,1,0,1,0.0,1,0.0,945,1.0
945,36.75327,33.89767,0.778,0,0.0,0.889,0,0.0,0.0,0.0,0.0,0.778,0.778,0.0,0,0,0,0.0,0,0.0,946,1.0
946,113.46748999999998,207.29107,0.972,0,0.972,0.944,0,0.0,0.0,0.0,0.972,0.0,0.0,0.0,0,0,0,0.0,1,0.0,947,1.0
947,24.620475,44.73189,0.472,1,0.472,0.944,0,0.0,0.0,0.0,0.472,0.0,0.0,0.0,0,0,0,0.0,1,0.0,948,0.0
948,24.22591,22.30007,1.0,0,1.0,1.0,0,0.0,0.0,0.0,0.0,0.0,0.0,0.0,0,0,0,0.0,1,0.0,949,1.0
949,172.1316075,243.58139,0.75,1,0.75,1.0,0,0.0,0.0,0.75,0.0,0.0,0.0,0.0,1,0,1,0.0,1,0.0,950,1.0
950,17.87752,24.368270000000006,1.0,0,1.0,1.0,0,0.0,0.0,1.0,0.0,0.0,0.0,0.0,1,0,1,0.0,1,0.0,951,1.0
951,53.48888,53.48888,0.889,0,0.0,0.889,0,0.0,0.0,0.0,0.0,0.889,0.889,0.0,0,0,0,0.0,0,0.0,952,0.0
952,5.776816667,10.25959,1.0,0,1.0,1.0,0,0.0,0.0,1.0,0.0,0.0,0.0,0.0,1,0,1,0.0,1,0.0,953,1.0
953,8.24063,16.04832,0.7,0,0.7,0.0,0,0.0,0.0,0.0,0.0,0.0,0.0,0.0,0,0,0,0.0,1,0.0,954,1.0
954,23.4826,22.5606,0.6,0,0.6,1.0,0,0.0,0.0,0.0,0.0,0.0,0.0,0.0,0,0,0,0.0,1,0.0,955,1.0
955,26.921940000000006,142.1583,0.6,0,0.6,1.0,0,0.0,0.0,0.0,0.0,0.0,0.0,0.0,0,0,0,0.0,1,0.0,956,1.0
956,37.170744,257.02612,0.7,0,0.7,0.0,0,0.0,0.0,0.0,0.0,0.0,0.0,0.0,0,0,0,0.0,1,0.0,957,1.0
957,22.883739,13.85741,0.8,1,0.8,0.0,0,0.0,0.0,0.0,0.0,0.0,0.0,0.0,0,0,0,0.0,1,0.0,958,1.0
958,4.0481433330000005,4.35705,1.0,0,1.0,1.0,0,0.0,0.0,1.0,0.0,0.0,0.0,0.0,1,0,1,0.0,1,0.0,959,1.0
959,22.37750667,33.20873,0.833333333,0,0.833333333,1.0,0,0.0,0.0,0.833333333,0.0,0.0,0.0,0.0,1,0,1,0.0,1,0.0,960,1.0
960,82.52043,91.45983,0.8335,0,0.0,0.778,0,0.0,0.0,0.0,0.0,0.8335,0.8335,0.0,0,0,0,0.0,0,0.0,961,1.0
961,3.32326,2.0553,1.0,0,1.0,1.0,0,0.0,0.0,1.0,0.0,0.0,0.0,0.0,1,0,1,0.0,1,0.0,962,1.0
962,26.23411667,25.41834,1.0,0,1.0,1.0,0,0.0,0.0,1.0,0.0,0.0,0.0,0.0,1,0,1,0.0,1,0.0,963,1.0
963,2.452946667,2.8988,1.0,0,1.0,1.0,0,0.0,0.0,0.0,0.0,0.0,0.0,0.0,1,0,0,0.0,1,0.0,964,1.0
964,9.17411,10.68228,0.75,0,0.75,0.5,0,0.0,0.0,0.0,0.0,0.0,0.0,0.0,0,0,0,0.0,1,0.0,965,1.0
965,88.90348667,176.49376999999996,1.0,0,1.0,1.0,0,0.0,0.0,1.0,0.0,0.0,0.0,0.0,1,0,1,0.0,1,0.0,966,1.0
966,3.189016667,3.18218,1.0,0,1.0,1.0,0,0.0,0.0,1.0,0.0,0.0,0.0,0.0,1,0,1,0.0,1,0.0,967,1.0
967,7.827953333,8.93626,1.0,0,1.0,1.0,0,0.0,0.0,1.0,0.0,0.0,0.0,0.0,1,0,1,0.0,1,0.0,968,1.0
968,17.22428333,18.41037,1.0,0,1.0,1.0,0,0.0,0.0,1.0,0.0,0.0,0.0,0.0,1,0,1,0.0,1,0.0,969,1.0
969,53.33527667,36.28288,0.833333333,0,0.833333333,1.0,0,0.0,0.0,0.833333333,0.0,0.0,0.0,0.0,1,0,1,0.0,1,0.0,970,1.0
970,3.999043333,6.65682,1.0,0,1.0,1.0,1,0.0,0.0,1.0,0.0,0.0,0.0,0.0,1,0,1,0.0,1,0.0,971,1.0
971,15.29949333,28.8658,1.0,0,1.0,1.0,0,0.0,0.0,1.0,0.0,0.0,0.0,0.0,1,0,1,0.0,1,0.0,972,1.0
972,3.75182,3.74294,0.5,1,0.5,0.0,0,0.0,0.0,0.5,0.0,0.0,0.0,0.0,1,0,1,0.0,1,0.0,973,0.0
973,5.9897800000000005,10.6362,1.0,0,1.0,1.0,0,0.0,0.0,1.0,0.0,0.0,0.0,0.0,1,0,1,0.0,1,0.0,974,1.0
974,17.04502667,19.66079,1.0,0,1.0,1.0,0,0.0,0.0,1.0,0.0,0.0,0.0,0.0,1,0,1,0.0,1,0.0,975,1.0
975,16.516885000000002,29.82378,0.5,1,0.5,1.0,0,0.0,0.0,0.0,0.5,0.0,0.0,0.0,0,0,0,0.0,1,0.0,976,1.0
976,10.36519333,17.415860000000002,1.0,0,1.0,1.0,0,0.0,0.0,1.0,0.0,0.0,0.0,0.0,1,0,1,0.0,1,0.0,977,1.0
977,35.84306667,38.65633,1.0,0,1.0,1.0,0,0.0,0.0,1.0,0.0,0.0,0.0,0.0,1,0,1,0.0,1,0.0,978,1.0
978,16.30101333,21.39841,1.0,0,1.0,1.0,0,0.0,0.0,1.0,0.0,0.0,0.0,0.0,1,0,1,0.0,1,0.0,979,1.0
979,7.69561,7.69561,1.0,0,1.0,1.0,0,0.0,0.0,1.0,0.0,0.0,0.0,0.0,1,0,1,0.0,1,0.0,980,0.0
980,7.523943332999999,14.61075,1.0,0,1.0,1.0,0,0.0,0.0,1.0,0.0,0.0,0.0,0.0,1,0,1,0.0,1,0.0,981,1.0
981,129.93976999999998,97.87689,0.9165,0,0.0,0.944,0,0.0,1.0,0.0,0.0,0.9165,0.9165,0.0,0,0,0,0.0,0,0.0,982,1.0
982,30.7184,38.19363,1.0,0,1.0,1.0,0,0.0,0.0,0.0,1.0,0.0,0.0,0.0,0,0,0,0.0,1,0.0,983,1.0
983,23.18145667,29.257590000000004,1.0,0,1.0,1.0,0,0.0,0.0,1.0,0.0,0.0,0.0,0.0,1,0,1,0.0,1,0.0,984,1.0
984,5.857595,8.15015,0.5,1,0.5,1.0,0,0.0,0.0,0.5,0.0,0.0,0.0,0.0,1,0,1,0.0,1,0.0,985,0.0
985,77.69643,130.34013000000002,0.8055,0,0.8055,0.611,0,0.0,0.0,0.0,0.8055,0.0,0.0,0.0,0,0,0,0.0,1,0.0,986,1.0
986,13.67317333,8.01791,1.0,0,1.0,1.0,0,0.0,0.0,1.0,0.0,0.0,0.0,0.0,1,0,1,0.0,1,0.0,987,1.0
987,3.39776,3.39776,0.0,1,0.0,0.0,0,0.0,0.0,0.0,0.0,0.0,0.0,0.0,1,0,0,0.0,1,0.0,988,0.0
988,4.7386,5.80536,1.0,0,1.0,1.0,0,0.0,0.0,1.0,0.0,0.0,0.0,0.0,1,0,1,0.0,1,0.0,989,1.0
989,4.412086667,6.3285800000000005,0.833333333,0,0.833333333,0.5,0,0.0,1.0,0.833333333,0.0,0.0,0.0,0.0,1,0,1,0.0,1,0.0,990,1.0
990,8.812053333,17.97522,1.0,0,1.0,1.0,0,0.0,0.0,1.0,0.0,0.0,0.0,0.0,1,0,1,0.0,1,0.0,991,1.0
991,5.041611,2.65247,0.2,3,0.2,1.0,0,0.0,0.0,0.0,0.0,0.0,0.0,0.0,1,0,0,0.0,1,0.0,992,1.0
992,4.955846667,4.8700800000000015,1.0,0,1.0,1.0,0,0.0,0.0,1.0,0.0,0.0,0.0,0.0,1,0,1,0.0,1,0.0,993,1.0
993,5.787933333,11.59742,1.0,0,1.0,1.0,0,0.0,0.0,1.0,0.0,0.0,0.0,0.0,1,0,1,0.0,1,0.0,994,1.0
994,8.330882,14.79761,1.0,0,1.0,1.0,0,0.0,1.0,0.0,0.0,0.0,0.0,0.0,0,0,0,0.0,1,0.0,995,1.0
995,23.409155,23.4148,0.972,0,0.972,1.0,0,0.0,0.0,0.0,0.972,0.0,0.0,0.0,0,0,0,0.0,1,0.0,996,1.0
996,28.40195,37.04427,1.0,0,1.0,1.0,0,0.0,0.0,0.0,1.0,0.0,0.0,0.0,0,0,0,0.0,1,0.0,997,1.0
997,30.13972,34.88046,0.8885,0,0.8885,0.833,0,0.0,0.0,0.0,0.8885,0.0,0.0,0.0,0,0,0,0.0,1,0.0,998,1.0
998,18.950505,29.13121,1.0,0,1.0,1.0,0,0.0,0.0,1.0,0.0,0.0,0.0,0.0,1,0,1,0.0,1,0.0,999,1.0
999,12.684554,14.337320000000002,1.0,0,1.0,1.0,0,0.0,0.0,0.0,0.0,0.0,0.0,0.0,0,0,0,0.0,1,1.0,1000,1.0
1000,8.124906667000001,15.68812,0.666666667,1,0.666666667,1.0,0,0.0,0.0,0.666666667,0.0,0.0,0.0,0.0,1,0,1,0.0,1,0.0,1001,1.0
1001,1.97449,1.97449,0.0,1,0.0,0.0,0,0.0,0.0,0.0,0.0,0.0,0.0,0.0,0,0,0,0.0,1,0.0,1002,0.0
1002,68.74481999999999,64.60432,0.778,0,0.0,0.889,0,0.0,1.0,0.0,0.0,0.778,0.778,0.0,0,0,0,0.0,0,0.0,1003,1.0
1003,41.75959,37.74118,0.9445,0,0.0,1.0,0,0.0,0.0,0.0,0.0,0.9445,0.9445,0.0,0,0,0,0.0,0,0.0,1004,1.0
1004,4.583323333,5.54587,1.0,0,1.0,1.0,0,0.0,0.0,1.0,0.0,0.0,0.0,0.0,1,0,1,0.0,1,0.0,1005,1.0
1005,7.0741,6.07712,1.0,0,1.0,1.0,0,0.0,0.0,1.0,0.0,0.0,0.0,0.0,1,0,1,0.0,1,0.0,1006,1.0
1006,9.536075,5.09795,0.5,1,0.5,0.0,0,0.0,0.0,0.5,0.0,0.0,0.0,0.0,1,0,1,0.0,1,0.0,1007,1.0
1007,4.116406667,6.47077,1.0,0,1.0,1.0,0,0.0,0.0,1.0,0.0,0.0,0.0,0.0,1,0,1,0.0,1,0.0,1008,1.0
1008,4.866876667,8.42154,1.0,0,1.0,1.0,0,0.0,0.0,1.0,0.0,0.0,0.0,0.0,1,0,1,0.0,1,0.0,1009,1.0
1009,19.34146,37.68914,0.833333333,0,0.833333333,1.0,0,0.0,0.0,0.833333333,0.0,0.0,0.0,0.0,1,0,1,0.0,1,0.0,1010,1.0
1010,5.233386667,7.3764,1.0,0,1.0,1.0,0,0.0,0.0,1.0,0.0,0.0,0.0,0.0,1,0,1,0.0,1,0.0,1011,1.0
1011,9.824266667,8.72452,1.0,0,1.0,1.0,0,0.0,1.0,1.0,0.0,0.0,0.0,0.0,1,0,1,0.0,1,0.0,1012,1.0
1012,63.13825,85.73024000000002,1.0,0,1.0,1.0,0,0.0,0.0,1.0,0.0,0.0,0.0,0.0,1,0,1,0.0,1,0.0,1013,1.0
1013,3.632873333,4.88306,1.0,0,1.0,1.0,0,0.0,0.0,1.0,0.0,0.0,0.0,0.0,1,0,1,0.0,1,0.0,1014,1.0
1014,21.98204,22.16151,0.944,0,0.944,0.944,0,0.0,0.0,0.0,0.944,0.0,0.0,0.0,0,0,0,0.0,1,0.0,1015,1.0
1015,8.022341,11.87774,1.0,0,1.0,1.0,0,0.0,0.0,0.0,0.0,0.0,0.0,0.0,1,0,0,0.0,1,0.0,1016,1.0
1016,10.67119,24.95254,1.0,0,1.0,1.0,0,0.0,0.0,1.0,0.0,0.0,0.0,0.0,1,0,1,0.0,1,0.0,1017,1.0
1017,9.883395,22.99887,1.0,0,1.0,1.0,0,0.0,0.0,0.0,0.0,0.0,0.0,0.0,1,0,0,0.0,1,0.0,1018,1.0
1018,11.76929333,26.13936,1.0,0,1.0,1.0,0,0.0,0.0,1.0,0.0,0.0,0.0,0.0,1,0,1,0.0,1,0.0,1019,1.0
1019,1.846366667,1.46795,1.0,0,1.0,1.0,0,0.0,0.0,0.0,0.0,0.0,0.0,0.0,1,0,0,0.0,1,0.0,1020,1.0
1020,11.05272,3.2770300000000003,0.5,1,0.5,1.0,0,0.0,0.0,0.5,0.0,0.0,0.0,0.0,1,0,1,0.0,1,0.0,1021,1.0
1021,19.97295,25.6605,1.0,0,1.0,1.0,0,0.0,0.0,1.0,0.0,0.0,0.0,0.0,1,0,1,0.0,1,0.0,1022,1.0
1022,6.342403332999999,9.85136,1.0,0,1.0,1.0,0,0.0,0.0,1.0,0.0,0.0,0.0,0.0,1,0,1,0.0,1,0.0,1023,1.0
1023,2.771573333,1.62761,1.0,0,1.0,1.0,0,0.0,0.0,1.0,0.0,0.0,0.0,0.0,1,0,1,0.0,1,0.0,1024,1.0
1024,6.5159,9.21776,1.0,0,1.0,1.0,0,0.0,0.0,1.0,0.0,0.0,0.0,0.0,1,0,1,0.0,1,0.0,1025,1.0
1025,5.370016667000001,9.08409,1.0,0,1.0,1.0,0,0.0,0.0,1.0,0.0,0.0,0.0,0.0,1,0,1,0.0,1,0.0,1026,1.0
1026,39.871785,44.68523,0.833,0,0.833,0.833,0,0.0,0.0,0.0,0.833,0.0,0.0,0.0,0,0,0,0.0,1,0.0,1027,1.0
1027,10.51131,22.41876,1.0,0,1.0,1.0,0,0.0,0.0,1.0,0.0,0.0,0.0,0.0,1,0,1,0.0,1,0.0,1028,1.0
1028,23.15351,25.666120000000006,0.972,0,0.972,0.944,0,0.0,0.0,0.0,0.972,0.0,0.0,0.0,0,0,0,0.0,1,0.0,1029,1.0
1029,2.421833333,2.74035,1.0,0,1.0,1.0,0,0.0,0.0,1.0,0.0,0.0,0.0,0.0,1,0,1,0.0,1,0.0,1030,1.0
1030,19.79517,29.67323,1.0,0,1.0,1.0,0,0.0,0.0,1.0,0.0,0.0,0.0,0.0,1,0,1,0.0,1,0.0,1031,1.0
1031,3.4802,3.721130000000001,1.0,0,1.0,1.0,0,0.0,0.0,1.0,0.0,0.0,0.0,0.0,1,0,1,0.0,1,0.0,1032,1.0
1032,12.65868667,12.0704,1.0,0,1.0,1.0,0,0.0,0.0,0.0,0.0,0.0,0.0,0.0,1,0,0,0.0,1,0.0,1033,1.0
1033,15.583685,13.97529,0.944,0,0.944,0.944,0,0.0,0.0,0.0,0.944,0.0,0.0,0.0,0,0,0,0.0,1,0.0,1034,1.0
1034,8.18593,12.91967,1.0,0,1.0,1.0,0,0.0,0.0,1.0,0.0,0.0,0.0,0.0,1,0,1,0.0,1,0.0,1035,1.0
1035,3.650153333,3.66479,1.0,0,1.0,1.0,0,0.0,0.0,1.0,0.0,0.0,0.0,0.0,1,0,1,0.0,1,0.0,1036,1.0
